"Time (s)","Linear Acceleration x (m/s^2)","Linear Acceleration y (m/s^2)","Linear Acceleration z (m/s^2)"
4.733509000E-3,0.000000000E0,0.000000000E0,0.000000000E0
9.592832000E-3,-2.092629671E-2,-5.962276459E-2,7.650780678E-2
1.445220700E-2,-8.139175177E-2,-3.041362762E-2,1.844174862E-1
1.931142500E-2,-1.678283811E-1,7.363319397E-3,5.428383350E-1
2.417064400E-2,-1.411893368E-1,2.038002014E-3,7.011573315E-1
2.902991500E-2,-1.209834814E-1,-2.408313751E-2,8.929848671E-1
3.388913400E-2,-7.224512100E-2,-6.159400940E-2,1.137891293E0
3.874835200E-2,-4.074692726E-3,-1.233367920E-1,1.351253510E0
4.360762300E-2,1.003820896E-1,-1.978979111E-1,1.484611511E0
4.846684200E-2,1.468443274E-1,-2.771816254E-1,1.430724144E0
5.332611300E-2,1.339836717E-1,-2.579565048E-1,1.341322899E0
5.818533200E-2,1.068656445E-1,-1.898508072E-1,1.303258896E0
6.304455000E-2,3.393995762E-2,-6.251811981E-2,1.206502438E0
6.790382100E-2,-4.789292812E-2,9.448146820E-2,1.110476017E0
7.276304000E-2,-1.594465971E-1,2.289438248E-1,1.067053318E0
7.762225900E-2,-2.036627531E-1,3.630695343E-1,9.937114716E-1
8.248152900E-2,-1.872124672E-1,4.411468506E-1,9.182562828E-1
8.734074800E-2,-1.605424881E-1,4.300994873E-1,8.243918419E-1
9.219996700E-2,-1.371927261E-1,4.201097488E-1,7.216825485E-1
9.705923800E-2,-7.327455282E-2,3.809776306E-1,7.033929825E-1
1.019184570E-1,-2.488428354E-2,3.178224564E-1,8.068590164E-1
1.067777270E-1,-5.246126652E-2,2.902288437E-1,9.270157814E-1
1.116369460E-1,-1.407082081E-1,2.321395874E-1,9.402160645E-1
1.164961650E-1,-3.047375083E-1,1.925306320E-1,8.510761261E-1
1.213554360E-1,-3.302117586E-1,1.797599792E-1,8.514628410E-1
1.262146540E-1,-4.261841774E-1,8.492660522E-2,7.028179169E-1
1.310738730E-1,-4.419853687E-1,-5.695343018E-3,5.937852859E-1
1.359331440E-1,-3.867443204E-1,-8.019542694E-2,5.285916328E-1
1.407923630E-1,-2.529461384E-1,-1.521682739E-1,4.349923134E-1
1.456516340E-1,-1.484971046E-1,-1.907033920E-1,2.800025940E-1
1.505108520E-1,-6.918144226E-2,-1.704444885E-1,1.288251877E-1
1.553700710E-1,-4.606211185E-2,-1.246404648E-1,-5.499649048E-2
1.602293420E-1,2.264875174E-2,-9.729099274E-2,-2.254281044E-1
1.650885610E-1,9.412366152E-2,-8.477783203E-2,-3.864340782E-1
1.699477790E-1,1.568164825E-1,-1.023349762E-1,-5.324106216E-1
1.748070500E-1,1.921525002E-1,-1.254625320E-1,-6.460528374E-1
1.796662690E-1,1.654424071E-1,-1.304454803E-1,-7.172975540E-1
1.845255400E-1,1.193556786E-1,-9.211730957E-2,-6.962518692E-1
1.893847590E-1,-3.030365705E-2,-1.870536804E-2,-6.643633842E-1
1.942439770E-1,-1.954717040E-1,8.656883240E-2,-6.870970726E-1
1.991032480E-1,-3.043909669E-1,1.808967590E-1,-7.279953957E-1
2.039624670E-1,-3.201909661E-1,1.777906418E-1,-5.643100739E-1
2.088217380E-1,-2.673612833E-1,8.369350433E-2,-3.426241875E-1
2.136809570E-1,-3.165213466E-1,-4.149627686E-2,-2.340579033E-1
2.185401750E-1,-3.978222013E-1,-1.486101151E-1,-2.399425507E-1
2.233994460E-1,-3.703597188E-1,-2.154235840E-1,-1.625871658E-1
2.282586650E-1,-3.787500262E-1,-1.354627609E-1,7.151222229E-2
2.331178840E-1,-5.834813714E-1,1.750764847E-1,2.692050934E-1
2.379771540E-1,-6.382194161E-1,-1.020374298E-1,-2.873191833E-1
2.428363730E-1,-5.620524287E-1,-2.476005554E-1,-8.297657967E-1
2.476010090E-1,-4.376093149E-1,-3.821177483E-1,-1.118693352E0
2.523649670E-1,-2.768557072E-1,-5.529346466E-1,-1.173098087E0
2.571289770E-1,-1.271486878E-1,-7.551364899E-1,-9.077539444E-1
2.618929360E-1,4.188090563E-2,-9.297661781E-1,-6.475629807E-1
2.666568940E-1,1.638474464E-1,-1.098591328E0,-4.909396172E-1
2.714209040E-1,2.490333915E-1,-1.264126301E0,-2.973332405E-1
2.761848630E-1,3.408317268E-1,-1.353397369E0,-2.744331360E-1
2.809488210E-1,3.386573792E-1,-1.360620022E0,-3.041243553E-1
2.857128320E-1,3.410330117E-1,-1.322290421E0,-3.222079277E-1
2.904767900E-1,2.848173678E-1,-1.243693829E0,-4.514012337E-1
2.952408000E-1,1.432031691E-1,-1.078386307E0,-6.545791626E-1
3.000047590E-1,-4.000592232E-2,-8.982911110E-1,-7.729144096E-1
3.047687690E-1,-1.420993805E-1,-7.199311256E-1,-8.385596275E-1
3.095327270E-1,-2.946957946E-1,-5.736856461E-1,-7.842617035E-1
3.142966860E-1,-3.967778683E-1,-4.046640396E-1,-5.838079453E-1
3.190606960E-1,-4.880146980E-1,-2.955002785E-1,-3.455996513E-1
3.238246540E-1,-4.325632453E-1,-2.476143837E-1,-1.997833252E-1
3.285886650E-1,-4.352219701E-1,-2.741627693E-1,-2.110228539E-1
3.333526230E-1,-4.309896231E-1,-3.526644707E-1,-3.725204468E-1
3.381165820E-1,-4.006716013E-1,-4.516448975E-1,-5.360379219E-1
3.428805920E-1,-3.586850166E-1,-5.235638618E-1,-6.144480705E-1
3.476445500E-1,-2.533652782E-1,-5.971789360E-1,-5.923986435E-1
3.524085610E-1,-2.225128412E-1,-6.205987930E-1,-5.679883957E-1
3.571725190E-1,-2.249394059E-1,-5.945186615E-1,-5.695400238E-1
3.619365290E-1,-2.837184072E-1,-5.856008530E-1,-6.345834732E-1
3.667004880E-1,-3.720005751E-1,-5.532531738E-1,-6.822791100E-1
3.714644460E-1,-4.257511497E-1,-4.951286316E-1,-6.943464279E-1
3.762284570E-1,-5.260200500E-1,-3.877191544E-1,-6.313843727E-1
3.809924150E-1,-7.494434118E-1,-2.523064613E-1,-9.155111313E-1
3.857564250E-1,-1.041926146E0,-1.497840881E-1,-1.843615055E0
3.905203840E-1,-1.011062860E0,-2.778863907E-2,-1.021458626E0
3.952843940E-1,-9.820206165E-1,6.133127213E-2,-3.541254997E-1
4.000483520E-1,-8.411398530E-1,8.720445633E-2,-2.815537453E-1
4.048123110E-1,-6.637057662E-1,6.015062332E-2,-6.263122559E-1
4.095763210E-1,-5.549213290E-1,-3.825426102E-2,-9.717273712E-1
4.143402790E-1,-5.086698532E-1,-1.530694962E-1,-1.090408802E0
4.191042900E-1,-4.844008088E-1,-2.085399628E-1,-9.352540970E-1
4.238682480E-1,-4.208945036E-1,-2.480497360E-1,-7.292575836E-1
4.286322590E-1,-3.520509005E-1,-3.168730736E-1,-5.319471359E-1
4.333962170E-1,-2.545082569E-1,-4.028267860E-1,-4.166111946E-1
4.381602270E-1,3.158092499E-2,-5.954122543E-1,-2.289552689E-1
4.429241860E-1,4.580261111E-1,-1.071106911E0,3.402795792E-1
4.476881440E-1,-3.507698178E-1,-7.888360023E-1,1.245746136E0
4.524521540E-1,-1.021012425E0,-1.709680557E-1,6.119575500E-1
4.572161130E-1,-7.023224235E-1,3.421115875E-2,-1.869586945E0
4.619801230E-1,-1.670082211E-1,2.026844025E-1,-2.824368954E0
4.667440820E-1,9.195011854E-2,3.578205109E-1,-2.019225836E0
4.715080920E-1,1.307671070E-1,2.317032814E-1,-9.497489929E-1
4.762720500E-1,9.251010418E-2,-9.476089478E-2,-3.503661156E-1
4.810360610E-1,8.705955744E-2,-4.727602005E-1,-2.446384430E-1
4.858000190E-1,4.840433598E-2,-6.768493652E-1,-3.360700607E-1
4.905639770E-1,-5.621486902E-2,-7.209963799E-1,-2.834315300E-1
4.953279880E-1,-2.360256910E-1,-5.930533409E-1,-1.941599846E-1
5.000919460E-1,-4.358943701E-1,-3.637986183E-1,-3.145413399E-1
5.048559570E-1,-6.383579969E-1,-2.570815086E-1,-6.778855324E-1
5.096199150E-1,-6.160854101E-1,-4.668331146E-2,-8.883948326E-1
5.143839250E-1,-6.342059374E-1,3.189229965E-2,-1.021152496E0
5.191478840E-1,-6.685875058E-1,3.457927704E-2,-1.022593975E0
5.239118940E-1,-6.529963017E-1,-5.667924881E-2,-9.392862320E-1
5.286758520E-1,-5.787152052E-1,-1.221041679E-1,-8.863368034E-1
5.334398630E-1,-5.391945243E-1,-1.686534882E-1,-8.284745216E-1
5.382038210E-1,-4.820652008E-1,-1.463003159E-1,-8.184351921E-1
5.429678320E-1,-4.169236422E-1,-7.661485672E-2,-9.108219147E-1
5.477317900E-1,-3.627552986E-1,4.693984985E-3,-9.983587265E-1
5.524957480E-1,-3.168149590E-1,8.829545975E-2,-1.140672684E0
5.572597590E-1,-2.669217587E-1,1.127157211E-1,-1.209441662E0
5.620237170E-1,-1.658416390E-1,9.750986099E-2,-1.131881714E0
5.667877270E-1,-9.955501556E-2,5.953168869E-2,-9.613223076E-1
5.715516860E-1,-3.212332726E-2,3.920888901E-2,-8.739686012E-1
5.763156960E-1,-1.781940460E-2,4.096508026E-2,-8.427371979E-1
5.810796540E-1,-6.150901318E-3,6.673240662E-2,-8.050885201E-1
5.858436650E-1,-2.049541473E-2,7.108402252E-2,-7.442197800E-1
5.906076230E-1,-3.916394711E-2,1.133885384E-1,-7.075805664E-1
5.953716340E-1,-6.682986021E-2,1.623282433E-1,-6.971311569E-1
6.001355920E-1,-7.724541426E-2,1.679539680E-1,-6.746029854E-1
6.048996020E-1,-1.061241627E-1,1.780424118E-1,-6.708865166E-1
6.096635610E-1,-1.368378997E-1,1.521668434E-1,-6.288375854E-1
6.144275710E-1,-1.812608242E-1,1.570916176E-1,-5.962462425E-1
6.191915290E-1,-2.133458257E-1,1.593871117E-1,-5.541329384E-1
6.239555400E-1,-2.356629372E-1,1.733908653E-1,-5.454101562E-1
6.287194980E-1,-2.647475600E-1,1.491007805E-1,-5.410194397E-1
6.334835090E-1,-3.030653596E-1,1.819758415E-1,-5.319304466E-1
6.382474670E-1,-3.221223950E-1,2.264409065E-1,-5.252938271E-1
6.430114770E-1,-3.338529468E-1,2.420477867E-1,-5.163111687E-1
6.477754360E-1,-3.192269206E-1,2.598690987E-1,-5.334439278E-1
6.525394460E-1,-2.994899750E-1,3.036184311E-1,-5.360894203E-1
6.573034040E-1,-2.983042002E-1,2.994823456E-1,-5.646438599E-1
6.620673630E-1,-2.300442457E-1,2.928996086E-1,-5.357775688E-1
6.668313730E-1,-1.831230521E-1,2.862281799E-1,-4.831528664E-1
6.715953840E-1,-1.642801762E-1,3.055605888E-1,-4.164175987E-1
6.763593420E-1,-1.613340974E-1,3.720607758E-1,-4.163866043E-1
6.811233000E-1,-1.456785798E-1,4.284548759E-1,-4.897103310E-1
6.858873110E-1,-1.603551507E-1,4.961991310E-1,-4.839673042E-1
6.906513210E-1,-1.889883280E-1,5.680861473E-1,-4.402322769E-1
6.954152790E-1,-2.364715338E-1,5.561847687E-1,-4.370422363E-1
7.001792380E-1,-2.671372890E-1,5.466613770E-1,-4.741258621E-1
7.049432480E-1,-3.144776225E-1,5.489377975E-1,-5.511054993E-1
7.097072070E-1,-3.689626455E-1,5.676536560E-1,-6.154499054E-1
7.144712170E-1,-3.999179602E-1,6.003623009E-1,-5.914487839E-1
7.192352270E-1,-4.671108127E-1,6.160936356E-1,-5.700387955E-1
7.239991860E-1,-5.110829473E-1,6.435003281E-1,-5.678806305E-1
7.287631960E-1,-4.776299000E-1,6.729483604E-1,-5.230865479E-1
7.335271540E-1,-4.624220133E-1,6.735086441E-1,-5.166225433E-1
7.382911650E-1,-3.963277936E-1,6.500797272E-1,-5.575242043E-1
7.430551230E-1,-3.553979993E-1,6.217346191E-1,-6.001186371E-1
7.478190820E-1,-3.272948861E-1,5.908002853E-1,-6.157608032E-1
7.525830920E-1,-2.430028915E-1,5.833020210E-1,-5.855512619E-1
7.573471020E-1,-2.024122477E-1,5.752859116E-1,-6.023354530E-1
7.621110610E-1,-1.716843843E-1,5.785603523E-1,-6.300091743E-1
7.668750710E-1,-1.505475640E-1,5.953831673E-1,-5.996093750E-1
7.716390290E-1,-1.150885820E-1,6.304140091E-1,-5.804510117E-1
7.764030400E-1,-8.884370327E-2,6.718306541E-1,-5.987434387E-1
7.811669980E-1,-5.241197348E-2,6.770529747E-1,-6.496219635E-1
7.859310090E-1,-6.258201599E-2,6.988539696E-1,-6.904168129E-1
7.906949670E-1,-3.834640980E-2,7.301220894E-1,-6.407370567E-1
7.954589770E-1,-2.053469419E-2,7.330026627E-1,-5.965356827E-1
8.002229360E-1,-1.392853260E-2,7.007532120E-1,-5.911841393E-1
8.049869460E-1,-2.337473631E-2,7.215552330E-1,-5.580763817E-1
8.097509040E-1,-2.993392944E-2,7.214522362E-1,-5.260052681E-1
8.145149150E-1,-4.085314274E-2,7.551670074E-1,-5.091805458E-1
8.192788730E-1,-7.531237602E-2,8.057756424E-1,-4.528908730E-1
8.240428840E-1,-1.142435074E-1,8.231315613E-1,-3.809819221E-1
8.288068420E-1,-1.527785063E-1,8.026161194E-1,-3.455739021E-1
8.335708520E-1,-1.338642240E-1,7.728195190E-1,-3.176088333E-1
8.383348110E-1,-1.481653452E-1,7.099165916E-1,-2.801823616E-1
8.430988210E-1,-1.740263700E-1,6.449074745E-1,-2.403268814E-1
8.478627790E-1,-2.209872603E-1,6.086025238E-1,-1.790242195E-1
8.526267900E-1,-3.152991533E-1,6.409611702E-1,-1.105470657E-1
8.573907480E-1,-4.188756347E-1,6.629810333E-1,-4.431819916E-2
8.621547590E-1,-5.340861082E-1,7.008442879E-1,3.073692322E-3
8.669187170E-1,-5.947188139E-1,7.590370178E-1,1.007223129E-1
8.716827270E-1,-6.129419208E-1,7.876429558E-1,1.555809975E-1
8.764467380E-1,-6.104827523E-1,8.129706383E-1,1.799254417E-1
8.812106960E-1,-5.707529783E-1,7.734098434E-1,2.332797050E-1
8.859747070E-1,-5.392168760E-1,7.549700737E-1,2.749977112E-1
8.907386650E-1,-4.590198994E-1,7.362318039E-1,3.761901855E-1
8.955026750E-1,-3.496509790E-1,7.030868530E-1,4.744887352E-1
9.002666340E-1,-2.352531552E-1,6.509547234E-1,5.983109474E-1
9.050306440E-1,-1.466320157E-1,6.417145729E-1,6.999697685E-1
9.097946020E-1,-6.197381020E-2,6.371059418E-1,7.582464218E-1
9.145586130E-1,2.444684505E-3,6.396069527E-1,7.923369408E-1
9.193225710E-1,6.362038851E-2,7.109928131E-1,8.426218033E-1
9.240865820E-1,1.340368986E-1,7.724337578E-1,8.520298004E-1
9.288505400E-1,1.834555864E-1,7.931041718E-1,8.471703529E-1
9.336145500E-1,2.671984136E-1,8.183522224E-1,8.924059868E-1
9.383785610E-1,3.473982215E-1,7.792487144E-1,9.542417526E-1
9.431425190E-1,4.339610934E-1,7.237720490E-1,9.898896217E-1
9.479065290E-1,5.079338551E-1,6.901359558E-1,1.020771980E0
9.526704880E-1,6.213907003E-1,6.853780746E-1,1.030140877E0
9.574344980E-1,6.952439547E-1,6.998853683E-1,9.609999657E-1
9.621984570E-1,7.484222651E-1,6.672277451E-1,8.801631927E-1
9.669624670E-1,7.902426720E-1,6.614761353E-1,8.017516136E-1
9.717264250E-1,7.801622152E-1,6.800966263E-1,7.351098061E-1
9.764904360E-1,7.348207235E-1,7.014303207E-1,7.087030411E-1
9.812543940E-1,6.138228774E-1,7.490434647E-1,7.033700943E-1
9.860184040E-1,4.532454014E-1,7.394704819E-1,7.334260941E-1
9.907824150E-1,2.795296609E-1,7.013959885E-1,7.467474937E-1
9.955463730E-1,1.639056206E-1,5.635766983E-1,8.411712646E-1
1.000310384E0,8.711105585E-2,3.908100128E-1,9.046578407E-1
1.005074342E0,6.569826603E-2,1.834287643E-1,9.350686073E-1
1.009838352E0,5.893754959E-2,3.364562988E-3,8.924226761E-1
1.014602311E0,4.531705379E-2,-6.172561646E-2,8.222856522E-1
1.019366321E0,-2.501136065E-2,-1.147537231E-1,6.939234734E-1
1.024130279E0,-1.278129816E-1,-1.131277084E-1,4.983625412E-1
1.028894290E0,-2.438451052E-1,-1.046628952E-1,3.001008034E-1
1.033658300E0,-3.468456268E-1,-1.060543060E-1,1.514139175E-1
1.038422259E0,-4.132750034E-1,-1.147747040E-1,2.805280685E-2
1.043186269E0,-4.436092973E-1,-1.591272354E-1,-8.670806885E-3
1.047950227E0,-4.739717245E-1,-2.149596214E-1,-1.900815964E-2
1.052714238E0,-5.236047506E-1,-2.202906609E-1,-8.653831482E-2
1.057478196E0,-5.357263684E-1,-1.872196198E-1,-1.636390686E-1
1.062242207E0,-5.229937434E-1,-1.703958511E-1,-2.174334526E-1
1.067006217E0,-4.364339709E-1,-1.457729340E-1,-1.606779099E-1
1.071770175E0,-3.176804185E-1,-1.654529572E-1,-3.971815109E-2
1.076534186E0,-1.581482887E-1,-1.483001709E-1,1.114749908E-1
1.081298144E0,8.279979229E-3,-1.159515381E-1,2.783370018E-1
1.086062154E0,2.242715359E-1,-5.429458618E-2,3.824491501E-1
1.090826113E0,4.282630682E-1,4.811382294E-2,4.270687103E-1
1.095590123E0,5.999552011E-1,1.172056198E-1,4.249515533E-1
1.100354134E0,7.597537041E-1,1.149969101E-1,4.126715660E-1
1.105118092E0,9.611368179E-1,5.365943909E-2,4.217228889E-1
1.109882102E0,1.155116081E0,-8.795738220E-2,4.595832825E-1
1.114646061E0,1.314203858E0,-2.239618301E-1,5.097708702E-1
1.119410071E0,1.446547747E0,-3.781113625E-1,5.437278748E-1
1.124174029E0,1.503004313E0,-4.719228745E-1,5.235905647E-1
1.128938040E0,1.504816532E0,-5.626521111E-1,4.848127365E-1
1.133702050E0,1.467411876E0,-6.530556679E-1,4.418349266E-1
1.138466009E0,1.376562119E0,-7.190923691E-1,3.871960640E-1
1.143230019E0,1.231931329E0,-8.036723137E-1,3.183822632E-1
1.147993977E0,1.075950027E0,-8.994803429E-1,2.662444115E-1
1.152757988E0,9.364598989E-1,-9.587707520E-1,2.687096596E-1
1.157521946E0,7.647801638E-1,-1.014999866E0,3.230128288E-1
1.162285957E0,6.173707843E-1,-1.030130386E0,3.622560501E-1
1.167049967E0,4.766442180E-1,-1.052044392E0,3.674440384E-1
1.171813925E0,3.896902204E-1,-1.052232265E0,3.364458084E-1
1.176577936E0,3.011877537E-1,-1.045185566E0,2.885942459E-1
1.181341894E0,3.088803887E-1,-1.059640408E0,2.193422318E-1
1.186105904E0,3.006165028E-1,-1.107532978E0,2.052106857E-1
1.190869863E0,3.222642243E-1,-1.119683266E0,1.841497421E-1
1.195633873E0,3.267138600E-1,-1.124960899E0,1.230587959E-1
1.200397884E0,3.598196507E-1,-1.085269451E0,9.126806259E-2
1.205161842E0,3.455972373E-1,-1.053245544E0,9.587955475E-2
1.209925852E0,3.749899566E-1,-1.000221729E0,1.057310104E-1
1.214689811E0,3.691549897E-1,-9.524211884E-1,1.516752243E-1
1.219453821E0,3.900180459E-1,-9.358978271E-1,1.547074318E-1
1.224217832E0,4.134722650E-1,-8.789596558E-1,1.911578178E-1
1.228981790E0,4.320251942E-1,-8.245744705E-1,1.940045357E-1
1.233745800E0,4.359511137E-1,-8.013296127E-1,1.824231148E-1
1.238509759E0,4.394606948E-1,-7.971611023E-1,1.230540276E-1
1.243273769E0,4.664570987E-1,-8.048725128E-1,5.426311493E-2
1.248037727E0,4.980853498E-1,-7.982854843E-1,-7.621383667E-2
1.252801738E0,5.108463764E-1,-8.347606659E-1,-1.940798759E-1
1.257565748E0,5.147278309E-1,-8.880276680E-1,-3.397245407E-1
1.262329707E0,4.624311328E-1,-9.366631508E-1,-4.389920235E-1
1.267093717E0,4.140596390E-1,-9.497523308E-1,-5.515537262E-1
1.271857727E0,3.623713255E-1,-9.583697319E-1,-6.178393364E-1
1.276621686E0,2.881368995E-1,-9.387078285E-1,-6.976122856E-1
1.281385696E0,1.768155992E-1,-8.979291916E-1,-7.552204132E-1
1.286149654E0,9.007826447E-2,-8.741641045E-1,-8.314342499E-1
1.290913665E0,2.025762200E-2,-8.386540413E-1,-9.025049210E-1
1.295677623E0,-3.312283754E-2,-8.438453674E-1,-9.733204842E-1
1.300441634E0,-4.665583372E-2,-8.513808250E-1,-1.001091480E0
1.305205644E0,-6.351119280E-2,-8.850188255E-1,-1.048079014E0
1.309969602E0,-8.372676373E-2,-9.159321785E-1,-1.088167667E0
1.314733613E0,-6.923705339E-2,-8.820772171E-1,-1.102417469E0
1.319497571E0,-6.306749582E-2,-8.265848160E-1,-1.102868557E0
1.324261582E0,-7.714730501E-2,-7.757411003E-1,-1.111053467E0
1.329025592E0,-8.744454384E-2,-6.912741661E-1,-1.105625153E0
1.333789550E0,-5.110907555E-2,-6.544151306E-1,-1.029349327E0
1.338553561E0,1.762008667E-2,-5.863265991E-1,-9.515733719E-1
1.343317519E0,7.596454024E-2,-5.658144951E-1,-9.318642616E-1
1.348081529E0,1.576252878E-1,-5.189375877E-1,-8.577265739E-1
1.352845540E0,1.959283054E-1,-4.911522865E-1,-7.745504379E-1
1.357609498E0,2.530946136E-1,-4.276723862E-1,-7.203364372E-1
1.362373509E0,2.840712368E-1,-3.907504082E-1,-7.043061256E-1
1.367137519E0,3.274218142E-1,-3.516812325E-1,-7.358298302E-1
1.371901477E0,3.568696976E-1,-3.487005234E-1,-7.621808052E-1
1.376665488E0,3.796250820E-1,-3.578591347E-1,-7.523498535E-1
1.381429446E0,3.908734918E-1,-3.647298813E-1,-7.256531715E-1
1.386193457E0,3.953509331E-1,-3.764915466E-1,-7.155165672E-1
1.390957467E0,4.216434360E-1,-3.835263252E-1,-7.315111160E-1
1.395721425E0,4.219778776E-1,-3.810000420E-1,-7.569723129E-1
1.400485436E0,4.418538213E-1,-3.616704941E-1,-7.729477882E-1
1.405249446E0,4.287291765E-1,-3.112220764E-1,-7.676382065E-1
1.410013404E0,4.447550178E-1,-2.774558067E-1,-8.078799248E-1
1.414777415E0,4.517542422E-1,-2.459416389E-1,-8.506784439E-1
1.419541373E0,4.523035884E-1,-2.452940941E-1,-9.079275131E-1
1.424305384E0,4.536278844E-1,-2.229204178E-1,-9.152173996E-1
1.429069394E0,4.270721376E-1,-1.741166115E-1,-9.084997177E-1
1.433833352E0,3.463521004E-1,-1.203970909E-1,-8.998036385E-1
1.438597363E0,3.090316057E-1,-6.900787354E-2,-9.129118919E-1
1.443361321E0,2.217759192E-1,-3.431940079E-2,-9.238228798E-1
1.448125332E0,1.872562766E-1,-9.135723114E-3,-9.802246094E-1
1.452889342E0,1.527255476E-1,8.996963501E-3,-1.005708218E0
1.457653300E0,1.368041933E-1,2.965211868E-2,-9.384236336E-1
1.462417311E0,1.176324487E-1,6.232929230E-2,-8.549742699E-1
1.467181321E0,1.379212439E-1,1.140427589E-1,-7.791428566E-1
1.471945279E0,1.404069364E-1,1.822643280E-1,-7.203202248E-1
1.476709290E0,1.563422382E-1,2.404742241E-1,-6.709604263E-1
1.481473248E0,2.003302276E-1,3.004350662E-1,-6.044960022E-1
1.486237259E0,2.392486930E-1,2.975468636E-1,-5.659995079E-1
1.491001269E0,2.521351874E-1,2.938632965E-1,-5.741963387E-1
1.495765227E0,2.847450376E-1,3.107562065E-1,-5.333676338E-1
1.500529238E0,3.299593925E-1,2.932286263E-1,-5.270462036E-1
1.505293248E0,3.114724755E-1,2.676610947E-1,-5.313067436E-1
1.510057207E0,3.009988070E-1,2.889451981E-1,-5.556697845E-1
1.514821217E0,2.435168624E-1,2.902035713E-1,-5.691485405E-1
1.519585175E0,2.058656812E-1,3.407816887E-1,-6.291770935E-1
1.524349186E0,1.472844481E-1,3.404345512E-1,-7.166619301E-1
1.529113196E0,1.034679711E-1,3.944396973E-1,-7.625789642E-1
1.533877154E0,4.078739882E-2,4.526557922E-1,-8.006300926E-1
1.538641165E0,2.581870556E-2,5.128221512E-1,-7.904982567E-1
1.543405175E0,-2.062165737E-2,6.107802391E-1,-7.658495903E-1
1.548169134E0,-2.703094482E-2,6.773772240E-1,-7.627172470E-1
1.552933144E0,-1.272505522E-2,7.104010582E-1,-7.239007950E-1
1.557697102E0,2.227771282E-2,7.673187256E-1,-6.973724365E-1
1.562461113E0,4.231637716E-2,8.243188858E-1,-6.927828789E-1
1.567225123E0,9.301248193E-2,9.029645920E-1,-6.290721893E-1
1.571989082E0,1.385876834E-1,9.602675438E-1,-5.422139168E-1
1.576753092E0,1.817543507E-1,9.987421036E-1,-4.800486565E-1
1.581517102E0,1.846870184E-1,1.051918983E0,-4.401965141E-1
1.586281061E0,2.050715089E-1,1.093541145E0,-3.558053970E-1
1.591045071E0,2.118565738E-1,1.109403610E0,-2.414250374E-1
1.595809082E0,2.217759788E-1,1.097196579E0,-1.138463020E-1
1.600573040E0,2.228775322E-1,1.092789650E0,-1.128053665E-2
1.605337050E0,2.581569850E-1,1.046059608E0,1.164503098E-1
1.610101009E0,2.844518721E-1,1.033428192E0,2.120728493E-1
1.614865019E0,2.922317386E-1,1.014269829E0,2.851758003E-1
1.619629029E0,2.957413495E-1,9.836997986E-1,4.028081894E-1
1.624392988E0,3.210726678E-1,9.105997086E-1,5.006051064E-1
1.629156998E0,3.203938603E-1,9.118299484E-1,5.812458992E-1
1.633921009E0,3.342000544E-1,8.628950119E-1,6.904101372E-1
1.638684967E0,3.504688442E-1,8.233346939E-1,7.711091042E-1
1.643448977E0,3.693341613E-1,7.976007462E-1,7.809133530E-1
1.648212988E0,3.597470820E-1,7.734041214E-1,7.968320847E-1
1.652976946E0,3.123621941E-1,8.005809784E-1,7.381172180E-1
1.657740957E0,2.679923177E-1,8.405828476E-1,6.602048874E-1
1.662504967E0,1.862073839E-1,8.526487350E-1,5.705666542E-1
1.667268925E0,8.382058144E-2,8.893203735E-1,4.478230476E-1
1.672032936E0,-8.021652699E-3,9.005479813E-1,3.062357903E-1
1.676796894E0,-8.232301474E-2,9.582023621E-1,2.195181847E-1
1.681560904E0,-1.656953096E-1,1.024291992E0,1.560211182E-1
1.686324915E0,-2.013164759E-1,1.115797043E0,7.224893570E-2
1.691088873E0,-2.204684019E-1,1.147182465E0,-4.907941818E-2
1.695852884E0,-2.185462117E-1,1.169134140E0,-1.512122154E-1
1.700616894E0,-2.171354294E-1,1.189190865E0,-2.156500816E-1
1.705380852E0,-1.828566194E-1,1.186182976E0,-2.286496162E-1
1.710144863E0,-2.017232180E-1,1.150849342E0,-2.169475555E-1
1.714908873E0,-1.852936745E-1,1.090549469E0,-2.070508003E-1
1.719672832E0,-2.098980546E-1,1.029323578E0,-2.444601059E-1
1.724436842E0,-2.229449153E-1,9.385738373E-1,-1.883344650E-1
1.729200852E0,-2.294180989E-1,8.446540833E-1,-1.320748329E-1
1.733964811E0,-3.178251982E-1,7.022171021E-1,-5.421638489E-2
1.738728821E0,-3.807799816E-1,5.756835938E-1,7.398033142E-2
1.743492832E0,-4.350902438E-1,4.290657043E-1,1.810059547E-1
1.748256790E0,-4.927329421E-1,2.885017395E-1,2.814779282E-1
1.753020800E0,-5.346798897E-1,2.063226700E-1,3.851814270E-1
1.757784811E0,-5.705423951E-1,1.439657211E-1,4.781217575E-1
1.762548769E0,-5.766067505E-1,8.208656311E-2,5.272035599E-1
1.767312779E0,-6.125678420E-1,4.430103302E-2,5.830340385E-1
1.772076738E0,-6.162126064E-1,7.566547394E-2,6.793527603E-1
1.776840748E0,-6.041324139E-1,9.941864014E-2,7.567434311E-1
1.781604759E0,-5.929041505E-1,1.177997589E-1,8.370075226E-1
1.786368717E0,-5.774000287E-1,1.331310272E-1,8.797426224E-1
1.791132727E0,-5.286976099E-1,1.120080948E-1,9.280471802E-1
1.795896738E0,-4.563811421E-1,7.849693298E-2,1.008013248E0
1.800660696E0,-3.604728580E-1,4.704380035E-2,1.088392735E0
1.805424707E0,-2.864022851E-1,-8.358955383E-3,1.168807030E0
1.810188717E0,-2.056407332E-1,-6.113624573E-2,1.232142448E0
1.814952675E0,-8.267205954E-2,-1.396636963E-1,1.361527920E0
1.819716686E0,4.176443815E-2,-2.031440735E-1,1.527914047E0
1.824480696E0,1.466211081E-1,-2.705774307E-1,1.604584694E0
1.829244654E0,2.634256482E-1,-3.180055618E-1,1.682407379E0
1.834008665E0,3.237319291E-1,-3.384199142E-1,1.663789749E0
1.838772675E0,3.094031811E-1,-3.773441315E-1,1.561184406E0
1.843536634E0,2.762126327E-1,-4.492726326E-1,1.372838020E0
1.848300644E0,1.554576159E-1,-5.089592934E-1,1.201925755E0
1.853064654E0,4.509514570E-2,-5.637612343E-1,1.012830257E0
1.857828613E0,-1.124505997E-1,-6.162290573E-1,8.964786530E-1
1.862592623E0,-2.915805578E-1,-6.664848328E-1,8.074083328E-1
1.867356634E0,-4.572299719E-1,-6.787528992E-1,7.717242241E-1
1.872120592E0,-6.103715897E-1,-6.745605469E-1,7.556767464E-1
1.876884602E0,-7.424952984E-1,-6.873445511E-1,7.089252472E-1
1.881648613E0,-8.497362733E-1,-6.906642914E-1,6.717810631E-1
1.886412571E0,-8.827477694E-1,-6.725702286E-1,6.917848587E-1
1.891176582E0,-8.995359540E-1,-6.521248817E-1,7.232322693E-1
1.895940592E0,-8.334858418E-1,-5.672650337E-1,7.254700661E-1
1.900704550E0,-7.465621233E-1,-4.659690857E-1,7.082815170E-1
1.905468561E0,-6.548713446E-1,-3.794426918E-1,6.576905251E-1
1.910232571E0,-5.099458694E-1,-3.245391846E-1,6.028032303E-1
1.914996529E0,-3.804576993E-1,-3.228368759E-1,5.057911873E-1
1.919760540E0,-2.702754140E-1,-3.432612419E-1,4.433922768E-1
1.924524550E0,-1.524041891E-1,-4.143700600E-1,3.296422958E-1
1.929288509E0,-6.922298670E-2,-4.737782478E-1,2.312903404E-1
1.934052519E0,-5.865275860E-3,-5.069165230E-1,1.002178192E-1
1.938816529E0,4.493695498E-2,-5.373601913E-1,3.146648407E-2
1.943580488E0,7.116836309E-2,-5.336318016E-1,-4.433155060E-3
1.948344498E0,4.144734144E-2,-5.647697449E-1,-2.948713303E-2
1.953108509E0,5.688250065E-3,-5.970711708E-1,-8.463716507E-2
1.957872467E0,-6.246840954E-2,-6.566729546E-1,-1.317987442E-1
1.962636477E0,-1.106691957E-1,-7.269172668E-1,-1.875586510E-1
1.967400488E0,-1.200560927E-1,-8.031549454E-1,-2.254405022E-1
1.972164446E0,-1.387436390E-1,-8.833131790E-1,-2.760801315E-1
1.976928457E0,-1.765136123E-1,-9.869008064E-1,-3.221635818E-1
1.981692467E0,-2.073354721E-1,-1.068865776E0,-3.656215668E-1
1.986456425E0,-2.314738631E-1,-1.143951893E0,-3.940343857E-1
1.991220436E0,-2.586153746E-1,-1.193375111E0,-4.571738243E-1
1.995984446E0,-2.794284821E-1,-1.236499310E0,-4.926419258E-1
2.000748404E0,-2.989564538E-1,-1.228085995E0,-5.195026398E-1
2.005512415E0,-3.173727393E-1,-1.182517529E0,-5.569939613E-1
2.010276425E0,-3.276169896E-1,-1.123660088E0,-5.885314941E-1
2.015040384E0,-2.605963349E-1,-1.063333988E0,-6.668715477E-1
2.019804394E0,-1.787243485E-1,-1.022978783E0,-6.965065002E-1
2.024568404E0,-9.386414289E-2,-1.038357735E0,-7.754039764E-1
2.029332415E0,3.964138031E-2,-1.075830460E0,-8.629393578E-1
2.034096373E0,1.432023644E-1,-1.066117287E0,-9.399509430E-1
2.038860384E0,2.457671165E-1,-1.028382301E0,-9.969348907E-1
2.043624394E0,3.116293550E-1,-9.818067551E-1,-1.064926624E0
2.048388352E0,3.529719114E-1,-9.668912888E-1,-1.098661423E0
2.053152363E0,3.679614961E-1,-9.189391136E-1,-1.119871616E0
2.057916321E0,3.763148189E-1,-8.926043510E-1,-1.133748531E0
2.062680332E0,4.166193604E-1,-8.206501007E-1,-1.126430511E0
2.067444342E0,3.954286277E-1,-7.985081673E-1,-1.088694096E0
2.072208352E0,3.007089496E-1,-7.518687248E-1,-1.073433399E0
2.076972311E0,2.229010463E-1,-7.618122101E-1,-1.078475952E0
2.081736321E0,1.377375126E-1,-8.398795128E-1,-1.123305798E0
2.086500332E0,6.331402063E-2,-8.541378975E-1,-1.070168495E0
2.091264290E0,-1.504904032E-2,-9.045896530E-1,-1.237424850E0
2.096028300E0,-8.493500948E-2,-9.458408356E-1,-1.359434605E0
2.100792311E0,-1.603485942E-1,-9.448151588E-1,-1.428611755E0
2.105556269E0,-2.147068381E-1,-9.449367523E-1,-1.423027992E0
2.110320279E0,-2.738144994E-1,-9.201970100E-1,-1.368681908E0
2.115084290E0,-3.085390925E-1,-8.589549065E-1,-1.358383656E0
2.119848248E0,-2.849460840E-1,-7.950301170E-1,-1.422565937E0
2.124612259E0,-2.408293486E-1,-7.477688789E-1,-1.455618858E0
2.129376269E0,-2.187639475E-1,-7.245984077E-1,-1.452377319E0
2.134140227E0,-1.802443266E-1,-6.970119476E-1,-1.369661808E0
2.138904238E0,-1.630874872E-1,-7.104439735E-1,-1.310194969E0
2.143668248E0,-3.909337521E-2,-5.262489319E-1,-1.106618881E0
2.148432259E0,-1.920950413E-2,-3.860812187E-1,-9.573755264E-1
2.153196217E0,-3.668308258E-2,-2.063012123E-1,-8.838400841E-1
2.157960227E0,-5.633354187E-3,-1.541237831E-1,-8.237876892E-1
2.162724238E0,7.119774818E-2,-8.835363388E-2,-7.748990059E-1
2.167488196E0,1.289536953E-1,-7.825279236E-2,-7.061529160E-1
2.172252207E0,1.290351152E-1,-7.838678360E-2,-6.151800156E-1
2.177016217E0,7.355469465E-2,-5.535745621E-2,-4.805145264E-1
2.181780175E0,5.990564823E-2,-6.913661957E-3,-3.618879318E-1
2.186544186E0,-4.119545221E-2,1.765794754E-1,-3.211770058E-1
2.191308196E0,-4.971951246E-1,7.481465340E-1,-7.071385384E-1
2.196072154E0,-3.215858936E-1,7.303881645E-1,-3.727903366E-1
2.200836165E0,-5.221903324E-3,4.730310440E-1,1.862735748E-1
2.205600175E0,4.470252991E-2,5.306482315E-2,-6.927967072E-3
2.210364134E0,-1.341751814E-1,-3.641963005E-1,-6.763744354E-1
2.215128144E0,-3.695688844E-1,-5.329179764E-1,-7.536525726E-1
2.219892154E0,-5.873965621E-1,-5.685157776E-1,-7.148199081E-1
2.224656165E0,-7.368537188E-1,-3.258056641E-1,-9.681129456E-1
2.229420123E0,-7.673913240E-1,5.139541626E-2,-1.355318546E0
2.234184134E0,-7.607050538E-1,2.716369629E-1,-1.370160103E0
2.238948144E0,-8.297574520E-1,3.831119537E-1,-9.730248451E-1
2.243712102E0,-8.886825442E-1,3.934044838E-1,-6.975283623E-1
2.248476113E0,-9.111222029E-1,3.770976067E-1,-5.677509308E-1
2.253240123E0,-9.827930927E-1,4.681434631E-1,-4.212379456E-1
2.258004082E0,-9.289094210E-1,5.567069054E-1,-3.562092781E-1
2.262768092E0,-8.884441853E-1,7.359094620E-1,-1.265597343E-1
2.267532102E0,-9.262587428E-1,9.673695564E-1,-1.683139801E-2
2.272296113E0,-9.302181005E-1,1.239042759E0,1.021404266E-1
2.277060071E0,-8.791819215E-1,1.371851921E0,2.182478905E-1
2.281824082E0,-7.183998823E-1,1.428250790E0,3.003377914E-1
2.286588092E0,-5.721670389E-1,1.446803093E0,3.195471764E-1
2.291352050E0,-4.329401255E-1,1.453992844E0,3.832874298E-1
2.296116061E0,-2.600035071E-1,1.447587967E0,4.483022690E-1
2.300880071E0,-1.636620760E-1,1.499268532E0,6.458511353E-1
2.305644029E0,-1.752119064E-1,1.537260056E0,8.299870491E-1
2.310408040E0,-2.181867957E-1,1.575922966E0,9.338436127E-1
2.315172050E0,-2.880106568E-1,1.612763405E0,1.081886292E0
2.319936009E0,-2.848402262E-1,1.681060791E0,1.290908813E0
2.324700019E0,-3.070943952E-1,1.675510406E0,1.448770046E0
2.329464029E0,-3.023736477E-1,1.648622513E0,1.560588360E0
2.334228040E0,-2.968623638E-1,1.595341682E0,1.605450153E0
2.338991998E0,-2.972877026E-1,1.570415497E0,1.543272018E0
2.343756009E0,-3.769542575E-1,1.587834358E0,1.377139091E0
2.348520019E0,-4.371766448E-1,1.623362541E0,1.265312195E0
2.353283977E0,-5.614112020E-1,1.719539642E0,1.270384789E0
2.358047988E0,-7.017461061E-1,1.842569351E0,1.246819019E0
2.362811998E0,-7.771408558E-1,1.949219704E0,1.257051945E0
2.367575957E0,-8.260584474E-1,2.030035973E0,1.265117645E0
2.372339967E0,-7.508311868E-1,2.008904457E0,1.246784210E0
2.377103977E0,-6.283771396E-1,1.922291756E0,1.206235886E0
2.381867936E0,-3.824120462E-1,1.778016090E0,1.180969715E0
2.386631946E0,-9.196260571E-2,1.665080070E0,1.179719448E0
2.391395957E0,2.477876693E-1,1.540864944E0,1.111058712E0
2.396159967E0,5.633930564E-1,1.415468216E0,9.767599106E-1
2.400923925E0,8.724526167E-1,1.310811043E0,8.503856659E-1
2.405687936E0,1.149408579E0,1.227241516E0,7.552227974E-1
2.410451946E0,1.397465229E0,1.045638084E0,7.743282318E-1
2.415215957E0,1.569367886E0,8.642511368E-1,8.499369621E-1
2.419979915E0,1.660869002E0,7.213268280E-1,9.054751396E-1
2.424743925E0,1.629399419E0,5.521936417E-1,9.316248894E-1
2.429507936E0,1.475538850E0,4.711952209E-1,8.693008423E-1
2.434271894E0,1.264150143E0,4.156770706E-1,7.097730637E-1
2.439035904E0,9.592984915E-1,3.852710724E-1,5.206003189E-1
2.443799915E0,6.654128432E-1,3.271198273E-1,4.216461182E-1
2.448563873E0,3.426094651E-1,2.888269424E-1,3.890533447E-1
2.453327884E0,5.780959129E-2,2.368421555E-1,4.942383766E-1
2.458091894E0,-1.509708166E-1,2.213268280E-1,6.578717232E-1
2.462855852E0,-3.313028812E-1,2.325506210E-1,8.224225044E-1
2.467619863E0,-3.890877366E-1,2.583189011E-1,9.569473267E-1
2.472383873E0,-3.202868104E-1,2.815837860E-1,1.059479713E0
2.477147884E0,-1.511249542E-1,2.900247574E-1,1.044712067E0
2.481911842E0,7.121235132E-2,2.713489532E-1,9.947328568E-1
2.486675852E0,3.430454433E-1,2.110233307E-1,9.101543427E-1
2.491439863E0,6.226850748E-1,1.829872131E-1,8.034238815E-1
2.496203821E0,8.733634949E-1,1.345386505E-1,6.820745468E-1
2.500967832E0,1.127528310E0,5.864715576E-2,5.318050385E-1
2.505731842E0,1.343576193E0,-5.642509460E-2,4.266214371E-1
2.510495852E0,1.542068243E0,-2.008323669E-1,2.778553963E-1
2.515259811E0,1.635718107E0,-2.763590813E-1,7.813596725E-2
2.520023821E0,1.749448895E0,-4.285793304E-1,-5.576276779E-2
2.524787832E0,1.783264875E0,-5.567560196E-1,-1.864809990E-1
2.529551790E0,1.732643723E0,-7.608823776E-1,-3.050317764E-1
2.534315800E0,1.626291037E0,-8.374295235E-1,-4.048609734E-1
2.539079811E0,1.518699408E0,-8.579330444E-1,-4.531507492E-1
2.543843821E0,1.361343145E0,-8.604092598E-1,-4.958882332E-1
2.548607779E0,1.225274086E0,-8.757181168E-1,-5.334649086E-1
2.553371790E0,1.069332123E0,-9.824299812E-1,-6.092419624E-1
2.558135800E0,9.718967676E-1,-1.132580280E0,-6.658916473E-1
2.562899759E0,8.797610998E-1,-1.299904823E0,-6.746845245E-1
2.567663769E0,7.898623347E-1,-1.412881374E0,-6.498403549E-1
2.572427779E0,7.136129141E-1,-1.524397850E0,-6.197466850E-1
2.577191738E0,6.218134165E-1,-1.622840881E0,-5.481395721E-1
2.581955748E0,5.380287766E-1,-1.682282925E0,-4.465832710E-1
2.586719759E0,4.716496766E-1,-1.679367065E0,-3.909049034E-1
2.591483769E0,4.037858248E-1,-1.662414074E0,-3.373708725E-1
2.596247727E0,3.561518192E-1,-1.648694515E0,-2.660989761E-1
2.601011738E0,3.457302451E-1,-1.660211086E0,-2.098112106E-1
2.605775748E0,3.297590017E-1,-1.683031082E0,-1.678347588E-1
2.610539707E0,3.374057412E-1,-1.703083992E0,-1.779403687E-1
2.615303717E0,3.858106732E-1,-1.701394081E0,-1.968379021E-1
2.620067727E0,3.966644406E-1,-1.687406063E0,-2.318520546E-1
2.624831738E0,4.373701811E-1,-1.605847359E0,-2.834372520E-1
2.629595696E0,4.340540767E-1,-1.520994663E0,-3.854560852E-1
2.634359707E0,4.204797447E-1,-1.458843708E0,-5.596981049E-1
2.639123717E0,3.992162049E-1,-1.445255280E0,-6.990532875E-1
2.643887675E0,4.611204863E-1,-1.503642559E0,-8.495030403E-1
2.648651686E0,5.105508566E-1,-1.583345890E0,-9.972109795E-1
2.653415696E0,5.165320635E-1,-1.612338066E0,-1.133097172E0
2.658179707E0,4.812013507E-1,-1.549809933E0,-1.271958828E0
2.662943665E0,4.518983960E-1,-1.465053082E0,-1.418807983E0
2.667707675E0,3.804799020E-1,-1.396183014E0,-1.514153957E0
2.672471686E0,3.405270576E-1,-1.374131680E0,-1.560655594E0
2.677235644E0,3.027947843E-1,-1.339123249E0,-1.551258564E0
2.681999654E0,2.478341460E-1,-1.319965363E0,-1.576691151E0
2.686763665E0,1.848767996E-1,-1.290543556E0,-1.565004349E0
2.691527675E0,1.279142499E-1,-1.232015133E0,-1.515948296E0
2.696291634E0,7.405149937E-2,-1.197228432E0,-1.460355759E0
2.701055644E0,1.577198505E-2,-1.133857727E0,-1.383570194E0
2.705819654E0,-1.803934574E-3,-1.085235119E0,-1.254204750E0
2.710583613E0,1.164144278E-2,-1.013318062E0,-1.119855881E0
2.715347623E0,1.087586284E-1,-8.944592476E-1,-9.730691910E-1
2.720111634E0,1.751559377E-1,-7.934470177E-1,-9.018921852E-1
2.724875644E0,2.735844851E-1,-6.911902428E-1,-8.917241096E-1
2.729639602E0,4.094022810E-1,-5.901308060E-1,-8.921446800E-1
2.734403613E0,5.282946825E-1,-5.164752007E-1,-8.912038803E-1
2.739167623E0,6.786767244E-1,-4.653091431E-1,-8.889579773E-1
2.743931582E0,7.894363403E-1,-4.459118843E-1,-9.215035439E-1
2.748695592E0,8.826264143E-1,-4.102277756E-1,-9.986014366E-1
2.753459602E0,9.179580212E-1,-3.341159821E-1,-1.041715622E0
2.758223561E0,9.169151783E-1,-2.150430679E-1,-1.082272530E0
2.762987571E0,8.864874840E-1,-1.413111687E-1,-1.094252110E0
2.767751582E0,8.621661663E-1,-9.611225128E-2,-1.089694023E0
2.772515592E0,8.675336242E-1,-1.007609367E-1,-1.080802917E0
2.777279550E0,8.832015395E-1,-6.670331955E-2,-1.101174831E0
2.782043561E0,9.016712904E-1,-6.563520432E-2,-1.112626553E0
2.786807571E0,8.963717222E-1,-1.870441437E-2,-1.053054810E0
2.791571582E0,9.290964007E-1,3.570747375E-2,-9.631152153E-1
2.796335540E0,9.158703089E-1,1.021327972E-1,-8.210639954E-1
2.801099550E0,9.282993078E-1,1.636104584E-1,-7.270193100E-1
2.805863561E0,9.808580875E-1,2.079143524E-1,-6.732864380E-1
2.810627519E0,9.589759707E-1,2.372064590E-1,-6.092386246E-1
2.815391529E0,9.751500487E-1,2.679357529E-1,-5.272793770E-1
2.820155540E0,9.575608373E-1,3.499927521E-1,-4.246602058E-1
2.824919550E0,8.942764401E-1,4.185695648E-1,-3.584189415E-1
2.829683509E0,7.661595345E-1,5.069484711E-1,-3.282213211E-1
2.834447519E0,6.614303589E-1,5.624094009E-1,-2.717223167E-1
2.839211529E0,5.606371164E-1,6.232204437E-1,-2.056994438E-1
2.843975488E0,4.611456692E-1,6.798963547E-1,-1.326756477E-1
2.848739498E0,3.796771467E-1,7.207365036E-1,-8.642292023E-2
2.853503509E0,3.688853979E-1,8.463497162E-1,-7.200717926E-2
2.858267519E0,3.571980894E-1,9.756851196E-1,-9.933948517E-2
2.863031477E0,3.425179124E-1,1.078001022E0,-1.233758926E-1
2.867795488E0,3.801507056E-1,1.148922920E0,-1.135511398E-1
2.872559498E0,4.511564672E-1,1.191248894E0,-1.014771461E-1
2.877323457E0,5.032454729E-1,1.238719940E0,-1.209492683E-1
2.882087467E0,5.679836869E-1,1.270091057E0,-1.435952187E-1
2.886851477E0,6.264586449E-1,1.252120018E0,-1.362276077E-1
2.891615488E0,6.861362457E-1,1.225676537E0,-1.445398331E-1
2.896379446E0,6.563273668E-1,1.243366241E0,-1.088552475E-1
2.901143457E0,6.110922098E-1,1.278829575E0,-8.182382584E-2
2.905907467E0,5.430757999E-1,1.324827194E0,-2.758073807E-2
2.910671425E0,4.545949399E-1,1.314452171E0,6.813144684E-2
2.915435436E0,3.930667341E-1,1.305088997E0,2.100143433E-1
2.920199446E0,2.673037648E-1,1.287076950E0,3.550834656E-1
2.924963457E0,2.014368773E-1,1.288990021E0,5.130267143E-1
2.929727415E0,1.281838417E-1,1.265268326E0,6.696510315E-1
2.934491425E0,7.842904329E-2,1.242078781E0,8.442821503E-1
2.939255436E0,4.482227564E-2,1.209697723E0,1.053853512E0
2.944019394E0,3.559172153E-3,1.210886955E0,1.222296238E0
2.948783404E0,-6.677949429E-2,1.252420425E0,1.335907936E0
2.953547415E0,-1.826170087E-1,1.343469620E0,1.371458054E0
2.958311425E0,-2.958133817E-1,1.397630692E0,1.358327389E0
2.963075384E0,-4.207190871E-1,1.457924843E0,1.356395721E0
2.967839394E0,-5.502873659E-1,1.517248154E0,1.360739231E0
2.972603404E0,-6.896407604E-1,1.609268188E0,1.373321056E0
2.977367415E0,-7.914179564E-1,1.777232170E0,1.367284298E0
2.982131373E0,-8.633111119E-1,1.918581009E0,1.406594276E0
2.986895384E0,-9.008644223E-1,2.009687424E0,1.435807705E0
2.991659394E0,-9.040384889E-1,2.048433304E0,1.526300430E0
2.996423352E0,-9.109533429E-1,2.056562424E0,1.601274967E0
3.001187363E0,-8.855209947E-1,2.046130180E0,1.675019264E0
3.005951373E0,-8.966905475E-1,2.038638115E0,1.793038845E0
3.010715332E0,-8.964690566E-1,1.998097420E0,1.931650162E0
3.015479342E0,-8.991206884E-1,1.924509048E0,2.124367714E0
3.020243352E0,-8.830578923E-1,1.805841446E0,2.328351021E0
3.025007363E0,-8.527936339E-1,1.646828651E0,2.472164154E0
3.029771321E0,-8.153556585E-1,1.440279961E0,2.532186031E0
3.034535332E0,-7.226482034E-1,1.222002029E0,2.587625980E0
3.039299342E0,-6.771194339E-1,9.584531784E-1,2.562305927E0
3.044063352E0,-6.664845943E-1,6.663703918E-1,2.461277485E0
3.048827311E0,-6.785996556E-1,4.102706909E-1,2.315803528E0
3.053591321E0,-6.992880702E-1,2.164840698E-1,2.175902367E0
3.058355332E0,-7.910000086E-1,1.575469971E-2,2.022170544E0
3.063119290E0,-8.730007410E-1,-1.845722198E-1,1.916341782E0
3.067883300E0,-9.147669673E-1,-3.651170731E-1,1.833876610E0
3.072647311E0,-9.405370355E-1,-5.257272720E-1,1.800637722E0
3.077411321E0,-9.433447719E-1,-6.566786766E-1,1.739702702E0
3.082175279E0,-9.182294011E-1,-7.985920906E-1,1.658241272E0
3.086939290E0,-9.269242883E-1,-8.631486893E-1,1.554140568E0
3.091703300E0,-9.042701721E-1,-9.365935326E-1,1.399077415E0
3.096467259E0,-8.927757740E-1,-9.904303551E-1,1.234173775E0
3.101231269E0,-9.181264043E-1,-1.058220863E0,1.045362473E0
3.105995279E0,-9.202872515E-1,-1.116117477E0,9.236273766E-1
3.110759290E0,-9.708693624E-1,-1.156892776E0,7.755756378E-1
3.115523248E0,-1.029232025E0,-1.144622326E0,6.392693520E-1
3.120287259E0,-1.105396271E0,-1.124628544E0,5.286645889E-1
3.125051269E0,-1.219032288E0,-1.103869915E0,4.456090927E-1
3.129815227E0,-1.277460337E0,-1.087015152E0,3.993177414E-1
3.134579238E0,-1.312396765E0,-1.081108093E0,3.416309357E-1
3.139343248E0,-1.369602680E0,-1.105133057E0,2.770814896E-1
3.144107259E0,-1.351481438E0,-1.137435913E0,2.603707314E-1
3.148871217E0,-1.315769434E0,-1.190026283E0,2.867403030E-1
3.153635227E0,-1.255550265E0,-1.258161545E0,3.323178291E-1
3.158399238E0,-1.182911158E0,-1.342019081E0,3.998150826E-1
3.163163196E0,-1.081129789E0,-1.417888641E0,4.370207787E-1
3.167927207E0,-9.620304704E-1,-1.459722996E0,4.969792366E-1
3.172691217E0,-8.471137881E-1,-1.546621323E0,5.561413765E-1
3.177455227E0,-7.147046328E-1,-1.606968403E0,6.004405022E-1
3.182219186E0,-5.717704296E-1,-1.669637680E0,6.350135803E-1
3.186983196E0,-4.299609065E-1,-1.713285923E0,6.458787918E-1
3.191747207E0,-3.006892800E-1,-1.728447914E0,6.428413391E-1
3.196511165E0,-1.858887672E-1,-1.736851215E0,5.785169601E-1
3.201275175E0,-8.495908976E-2,-1.805426598E0,4.698543549E-1
3.206039186E0,7.462859154E-3,-1.814609528E0,3.432607651E-1
3.210803196E0,9.407514334E-2,-1.919700146E0,1.938686371E-1
3.215567154E0,1.941635013E-1,-1.943602085E0,8.121061325E-2
3.220331165E0,2.407632470E-1,-1.953221321E0,-1.409006119E-2
3.225095175E0,2.576176524E-1,-1.922159672E0,-1.568422318E-1
3.229859134E0,2.516984940E-1,-1.902987480E0,-3.088846207E-1
3.234623144E0,2.084950209E-1,-1.864556789E0,-4.464583397E-1
3.239387154E0,1.803712845E-1,-1.814070225E0,-5.313911438E-1
3.244151165E0,1.311237812E-1,-1.792154312E0,-6.020598412E-1
3.248915123E0,9.625464678E-2,-1.765343189E0,-6.656742096E-1
3.253679134E0,6.119406223E-2,-1.759975910E0,-7.341432571E-1
3.258443144E0,8.070248365E-2,-1.773656368E0,-8.026742935E-1
3.263207102E0,6.868749857E-2,-1.760962963E0,-8.832044601E-1
3.267971113E0,9.455090761E-2,-1.798346996E0,-9.686121941E-1
3.272735123E0,1.078785658E-1,-1.804474354E0,-1.001612663E0
3.277499082E0,1.564097404E-1,-1.779361248E0,-1.049242020E0
3.282263092E0,1.682968140E-1,-1.763752460E0,-1.106585979E0
3.287027102E0,1.935960054E-1,-1.786275864E0,-1.147419453E0
3.291791113E0,2.632529140E-1,-1.811237335E0,-1.161906242E0
3.296555071E0,3.222353458E-1,-1.841162682E0,-1.173758030E0
3.301319082E0,3.059306741E-1,-1.818933487E0,-1.211307049E0
3.306083092E0,3.123713732E-1,-1.816400528E0,-1.236142635E0
3.310847102E0,3.200246692E-1,-1.766780853E0,-1.205049992E0
3.315611061E0,3.170168400E-1,-1.667817593E0,-1.215961933E0
3.320375071E0,2.963876128E-1,-1.533963203E0,-1.228103161E0
3.325139082E0,2.702870369E-1,-1.410692215E0,-1.255740166E0
3.329903040E0,2.628126144E-1,-1.312375546E0,-1.272463799E0
3.334667050E0,2.503295541E-1,-1.212600231E0,-1.295123100E0
3.339431061E0,2.521911263E-1,-1.149400711E0,-1.304868221E0
3.344195019E0,2.662585378E-1,-1.055630684E0,-1.337813377E0
3.348959029E0,2.520464063E-1,-9.574098587E-1,-1.372722387E0
3.353723040E0,2.719516754E-1,-8.593049049E-1,-1.388390779E0
3.358487050E0,2.879022062E-1,-7.539272308E-1,-1.377994776E0
3.363251009E0,3.121531308E-1,-6.817221642E-1,-1.358543873E0
3.368015019E0,3.209572732E-1,-6.186075211E-1,-1.344584942E0
3.372779029E0,3.097628653E-1,-5.883398056E-1,-1.302826405E0
3.377542988E0,3.239724040E-1,-5.311212540E-1,-1.247671604E0
3.382306998E0,3.346126378E-1,-4.948182106E-1,-1.207785606E0
3.387071009E0,2.985632122E-1,-4.531645775E-1,-1.190256596E0
3.391834967E0,2.800780833E-1,-4.325695038E-1,-1.144732475E0
3.396598977E0,2.620168626E-1,-4.187707901E-1,-1.080700397E0
3.401362988E0,2.389285564E-1,-3.976130486E-1,-9.621338844E-1
3.406126998E0,1.934145093E-1,-3.310861588E-1,-7.864847183E-1
3.410890957E0,1.491057873E-1,-2.242841721E-1,-6.610169411E-1
3.415654967E0,1.226852536E-1,-1.587738991E-1,-6.115388870E-1
3.420418977E0,8.561056852E-2,-9.178829193E-2,-5.275664330E-1
3.425182936E0,9.302151203E-2,-1.883697510E-2,-4.206414223E-1
3.429946946E0,9.717893600E-2,2.465248108E-3,-3.286323547E-1
3.434710957E0,1.436481178E-1,4.121971130E-2,-1.818099022E-1
3.439474967E0,1.491735280E-1,6.381511688E-2,-1.592063904E-1
3.444238925E0,1.549869180E-1,6.542778015E-2,-2.055215836E-1
3.449002936E0,1.901870668E-1,1.272716522E-1,-2.416701317E-1
3.453766946E0,2.119479179E-1,1.705236435E-1,-2.606239319E-1
3.458530957E0,1.821217239E-1,2.264289856E-1,-2.960705757E-1
3.463294915E0,1.269638538E-1,2.856302261E-1,-3.459162712E-1
3.468058925E0,3.204780817E-2,3.723297119E-1,-3.819332123E-1
3.472822884E0,-2.874213457E-2,4.749403000E-1,-3.665156364E-1
3.477586894E0,-1.155329347E-1,5.842704773E-1,-3.290319443E-1
3.482350904E0,-1.854330301E-1,7.292556763E-1,-2.364840508E-1
3.487114915E0,-2.243599296E-1,8.838491440E-1,-2.017197609E-1
3.491878873E0,-2.823429108E-1,1.055377960E0,-1.388921738E-1
3.496642884E0,-3.114600778E-1,1.176996231E0,-6.249856949E-2
3.501406894E0,-3.498322368E-1,1.267830849E0,2.514600754E-2
3.506170852E0,-3.686401844E-1,1.363723755E0,8.826112747E-2
3.510934863E0,-4.202957749E-1,1.385735512E0,1.867504120E-1
3.515698873E0,-3.923749328E-1,1.429523468E0,3.230042458E-1
3.520462832E0,-3.853079677E-1,1.449618340E0,4.277310371E-1
3.525226842E0,-3.129340410E-1,1.426900864E0,5.822839737E-1
3.529990852E0,-2.420296073E-1,1.411560059E0,7.006678581E-1
3.534754863E0,-2.131272554E-1,1.374753952E0,8.501081467E-1
3.539518821E0,-1.568307281E-1,1.359379768E0,9.543366432E-1
3.544282832E0,-1.114192605E-1,1.367712021E0,1.068521500E0
3.549046842E0,-1.057423353E-1,1.334980011E0,1.259902954E0
3.553810800E0,-8.246380091E-2,1.280262947E0,1.404279709E0
3.558574811E0,-8.902394772E-2,1.248923302E0,1.466039181E0
3.563338821E0,-1.178023219E-1,1.269536972E0,1.474158764E0
3.568102832E0,-2.424280047E-1,1.358648300E0,1.388355732E0
3.572866790E0,-4.864529371E-1,1.516183853E0,1.301991940E0
3.577630800E0,-7.449020743E-1,1.684702873E0,1.313045979E0
3.582394811E0,-1.028116226E0,1.830911636E0,1.392360210E0
3.587158769E0,-1.282112598E0,1.971857071E0,1.453218460E0
3.591922779E0,-1.476925373E0,2.057724953E0,1.528342247E0
3.596686790E0,-1.570401907E0,2.112905502E0,1.650310993E0
3.601450748E0,-1.570616364E0,2.128244400E0,1.734634399E0
3.606214759E0,-1.461515188E0,2.104119301E0,1.792606831E0
3.610978769E0,-1.300819516E0,2.064639091E0,1.881230354E0
3.615742727E0,-1.031394482E0,1.940610886E0,2.012178898E0
3.620506738E0,-6.864578724E-1,1.715473175E0,2.108845711E0
3.625270748E0,-2.846350074E-1,1.439533234E0,2.219147205E0
3.630034759E0,1.532214880E-1,1.098385811E0,2.312333107E0
3.634798717E0,5.992245674E-1,7.852277756E-1,2.362413406E0
3.639562727E0,9.825403094E-1,5.475759506E-1,2.346105099E0
3.644326738E0,1.263504744E0,3.323917389E-1,2.292963028E0
3.649090696E0,1.474246025E0,1.560039520E-1,2.160823345E0
3.653854707E0,1.661338210E0,-2.014255524E-2,1.926531792E0
3.658618717E0,1.751760006E0,-1.771068573E-1,1.624145508E0
3.663382675E0,1.703451991E0,-2.791786194E-1,1.277984619E0
3.668146686E0,1.488229036E0,-3.144903183E-1,9.598889351E-1
3.672910696E0,1.146100283E0,-2.973461151E-1,7.890000343E-1
3.677674707E0,6.995723248E-1,-2.539119720E-1,8.099875450E-1
3.682438665E0,3.310332000E-1,-2.006607056E-1,9.023327827E-1
3.687202675E0,-6.672561169E-3,-1.278076172E-1,8.955616951E-1
3.691966686E0,-2.644624710E-1,-1.845932007E-2,8.394470215E-1
3.696730644E0,-4.145075679E-1,6.302547455E-2,7.358918190E-1
3.701494654E0,-4.672772884E-1,1.215686798E-1,6.993074417E-1
3.706258665E0,-3.662967086E-1,1.260223389E-1,7.009558678E-1
3.711022623E0,-1.839218140E-1,1.120443344E-1,7.268085480E-1
3.715786634E0,1.746755838E-2,6.021976471E-2,7.845492363E-1
3.720550644E0,2.929081917E-1,-3.460407257E-2,8.462395668E-1
3.725314602E0,5.926326513E-1,-1.870203018E-1,8.934297562E-1
3.730078613E0,8.432259560E-1,-3.326826096E-1,9.123935699E-1
3.734842623E0,1.016964078E0,-4.048070908E-1,8.581595421E-1
3.739606582E0,1.129321337E0,-4.297752380E-1,7.931590080E-1
3.744370592E0,1.174038172E0,-4.314403534E-1,7.054204941E-1
3.749134602E0,1.202168226E0,-4.167633057E-1,6.472554207E-1
3.753898561E0,1.214463711E0,-3.949527740E-1,6.085262299E-1
3.758662571E0,1.206883669E0,-4.182310104E-1,5.456495285E-1
3.763426582E0,1.184831142E0,-4.407577515E-1,4.508986473E-1
3.768190592E0,1.210794568E0,-4.669666290E-1,4.002017975E-1
3.772954550E0,1.186918259E0,-5.038528442E-1,3.430385590E-1
3.777718561E0,1.125349283E0,-5.202293396E-1,2.720823288E-1
3.782482571E0,1.066884398E0,-5.973448753E-1,2.183842659E-1
3.787246529E0,9.756011963E-1,-7.302322388E-1,1.721758842E-1
3.792010540E0,8.848773241E-1,-8.518557549E-1,1.644372940E-1
3.796774550E0,7.585315704E-1,-9.358940125E-1,1.663432121E-1
3.801538509E0,6.296736002E-1,-9.752206802E-1,1.802520752E-1
3.806302519E0,5.120226145E-1,-9.652447701E-1,1.896028519E-1
3.811066529E0,3.906790614E-1,-9.779577255E-1,2.067227364E-1
3.815830488E0,3.034249246E-1,-9.729962349E-1,2.320618629E-1
3.820594498E0,2.209490538E-1,-9.938282967E-1,2.710576057E-1
3.825358509E0,1.378815770E-1,-1.026454926E0,3.457407951E-1
3.830122467E0,1.182140112E-1,-1.061697960E0,4.590287209E-1
3.834886477E0,1.039511561E-1,-1.085610390E0,5.158195496E-1
3.839650488E0,9.738922119E-2,-1.105734348E0,5.788655281E-1
3.844414498E0,8.894634247E-2,-1.105723381E0,6.009378433E-1
3.849178457E0,1.097485423E-1,-1.076423168E0,5.898389816E-1
3.853942467E0,1.386184096E-1,-1.085047722E0,5.532221794E-1
3.858706425E0,1.925586462E-1,-1.093523979E0,4.819059372E-1
3.863470436E0,2.552520633E-1,-1.166419506E0,3.425855637E-1
3.868234446E0,3.057044744E-1,-1.250916004E0,1.399297714E-1
3.872998457E0,3.275656700E-1,-1.301323414E0,-6.422853470E-2
3.877762415E0,3.306499124E-1,-1.326875687E0,-2.800054550E-1
3.882526425E0,2.981797457E-1,-1.329490662E0,-4.938654900E-1
3.887290436E0,2.299548984E-1,-1.287151814E0,-6.923761368E-1
3.892054394E0,1.448758841E-1,-1.225774288E0,-8.643355370E-1
3.896818404E0,8.808976412E-2,-1.173687458E0,-1.015208721E0
3.901582415E0,6.891280413E-2,-1.137814999E0,-1.123924732E0
3.906346373E0,6.344264746E-2,-1.125107288E0,-1.217143774E0
3.911110384E0,1.003983617E-1,-1.090059757E0,-1.302153826E0
3.915874394E0,1.225246787E-1,-1.106826782E0,-1.359755516E0
3.920638352E0,1.802107692E-1,-1.079925060E0,-1.408788443E0
3.925402363E0,1.945263743E-1,-1.045487881E0,-1.413039923E0
3.930166373E0,2.300005555E-1,-1.008584976E0,-1.450987101E0
3.934930384E0,2.672421336E-1,-9.789218903E-1,-1.443531275E0
3.939694342E0,3.228864074E-1,-9.756956100E-1,-1.364320278E0
3.944458352E0,4.136702418E-1,-9.606676102E-1,-1.292247057E0
3.949222311E0,4.703473747E-1,-9.363570213E-1,-1.243827820E0
3.953986321E0,5.169034004E-1,-8.622713089E-1,-1.206879377E0
3.958750332E0,5.463225842E-1,-7.863950729E-1,-1.181161880E0
3.963514290E0,5.874874592E-1,-7.805447578E-1,-1.128204346E0
3.968278300E0,6.334545612E-1,-7.849397659E-1,-1.083766460E0
3.973042311E0,6.916856170E-1,-7.804570198E-1,-1.074060440E0
3.977806321E0,7.480881810E-1,-8.029179573E-1,-1.111013412E0
3.982570279E0,7.788871527E-1,-8.163824081E-1,-1.144456863E0
3.987334290E0,7.696039677E-1,-8.255391121E-1,-1.174580336E0
3.992098300E0,7.894108891E-1,-8.111577034E-1,-1.160980701E0
3.996862259E0,7.901987433E-1,-7.946758270E-1,-1.151710033E0
4.001626269E0,7.980592251E-1,-7.568817139E-1,-1.180406809E0
4.006390279E0,7.410423756E-1,-7.217092514E-1,-1.220757961E0
4.011154238E0,7.147870660E-1,-6.962943077E-1,-1.241732359E0
4.015918248E0,7.478015423E-1,-7.141256332E-1,-1.264811754E0
4.020682207E0,7.467994094E-1,-7.201137543E-1,-1.273372889E0
4.025446217E0,7.836480141E-1,-6.831693649E-1,-1.286592245E0
4.030210227E0,7.628419995E-1,-6.248030663E-1,-1.294964552E0
4.034974238E0,7.634218335E-1,-5.305738449E-1,-1.248506784E0
4.039738196E0,7.425503731E-1,-4.172658920E-1,-1.195034742E0
4.044502207E0,7.458131313E-1,-3.134737015E-1,-1.134716511E0
4.049266217E0,7.326330543E-1,-2.191686630E-1,-1.022167683E0
4.054030175E0,7.628959417E-1,-1.654729843E-1,-9.122962952E-1
4.058794186E0,7.388603091E-1,-1.236658096E-1,-8.432846069E-1
4.063558196E0,7.898394465E-1,-8.665752411E-2,-7.886128426E-1
4.068322154E0,8.107862473E-1,-5.931568146E-2,-7.528586388E-1
4.073086165E0,8.280794621E-1,-3.451442719E-2,-6.952700615E-1
4.077850175E0,8.415869474E-1,3.546047211E-2,-6.372609138E-1
4.082614134E0,8.055216670E-1,1.671266556E-1,-5.499420166E-1
4.087378144E0,7.626646757E-1,2.885856628E-1,-4.977073669E-1
4.092142154E0,6.862723827E-1,4.116411209E-1,-4.420647621E-1
4.096906113E0,6.381311417E-1,5.171327591E-1,-3.877816200E-1
4.101670123E0,5.843136907E-1,6.026201248E-1,-3.252243996E-1
4.106434134E0,5.245096087E-1,6.872377396E-1,-2.854886055E-1
4.111198092E0,4.704692066E-1,7.805700302E-1,-2.255825996E-1
4.115962102E0,4.460338950E-1,8.707075119E-1,-2.101373672E-1
4.120726113E0,3.843632042E-1,9.648771286E-1,-2.272019386E-1
4.125490071E0,3.981858194E-1,1.046470642E0,-2.458171844E-1
4.130254082E0,3.969067633E-1,1.113254547E0,-2.566037178E-1
4.135018040E0,4.264025092E-1,1.158280373E0,-2.694125175E-1
4.139782050E0,4.607982039E-1,1.200916290E0,-2.654438019E-1
4.144546061E0,5.388473272E-1,1.210326195E0,-2.259306908E-1
4.149310019E0,6.106507778E-1,1.251295090E0,-1.966791153E-1
4.154074029E0,6.790280342E-1,1.266622543E0,-1.493005753E-1
4.158838040E0,7.252447009E-1,1.268414497E0,-1.031336784E-1
4.163601998E0,7.662894726E-1,1.244830132E0,-5.832624435E-2
4.168366009E0,7.785876989E-1,1.222273827E0,-2.695846558E-2
4.173130019E0,7.671794891E-1,1.255731583E0,5.301475525E-3
4.177893977E0,6.724355221E-1,1.294920921E0,7.435417175E-2
4.182657988E0,5.231086612E-1,1.358852386E0,8.473348618E-2
4.187421998E0,2.903530002E-1,1.480877876E0,9.637403488E-2
4.192185957E0,1.029334664E-1,1.617839813E0,1.499743462E-1
4.196949967E0,-1.209653020E-1,1.741008759E0,2.096366882E-1
4.201713977E0,-3.220560551E-1,1.850434303E0,3.254179955E-1
4.206477936E0,-5.274646878E-1,1.955658913E0,4.374446869E-1
4.211241946E0,-7.143196464E-1,2.051842690E0,6.412773132E-1
4.216005957E0,-8.979064226E-1,2.174772263E0,8.746376038E-1
4.220769915E0,-1.043135166E0,2.300383568E0,1.125646114E0
4.225533925E0,-1.155211449E0,2.411746979E0,1.385003090E0
4.230297884E0,-1.200991035E0,2.463304520E0,1.619487762E0
4.235061894E0,-1.199453592E0,2.454916954E0,1.848666191E0
4.239825904E0,-1.147943020E0,2.417465210E0,2.034836292E0
4.244589863E0,-1.057851791E0,2.326847076E0,2.185764313E0
4.249353873E0,-9.286577702E-1,2.185281754E0,2.335473061E0
4.254117884E0,-8.006197810E-1,1.990216255E0,2.439045906E0
4.258881842E0,-6.255315542E-1,1.822848320E0,2.556578159E0
4.263645852E0,-4.484547973E-1,1.566051483E0,2.592517376E0
4.268409863E0,-2.880023122E-1,1.329952240E0,2.573192596E0
4.273173821E0,-1.508898139E-1,1.119493484E0,2.493627071E0
4.277937832E0,-5.087953806E-2,9.157314301E-1,2.370343208E0
4.282701790E0,-3.295558691E-2,7.069797516E-1,2.179072380E0
4.287465800E0,-4.161489010E-2,5.365457535E-1,1.936175823E0
4.292229811E0,-1.101152301E-1,3.783569336E-1,1.674724102E0
4.296993769E0,-2.766331434E-1,2.423171997E-1,1.432315350E0
4.301757779E0,-4.720268250E-1,1.143999100E-1,1.234531879E0
4.306521790E0,-6.897547245E-1,2.837944031E-2,1.128389359E0
4.311285748E0,-8.637817502E-1,-2.517604828E-2,1.039190769E0
4.316049759E0,-1.044928551E0,-9.154605865E-2,9.640979767E-1
4.320813769E0,-1.217016220E0,-1.492052078E-1,8.982033730E-1
4.325577727E0,-1.323154926E0,-2.340984344E-1,8.726387024E-1
4.330341738E0,-1.347025394E0,-3.343534470E-1,8.683834076E-1
4.335105696E0,-1.308174849E0,-4.358530045E-1,9.144783020E-1
4.339869707E0,-1.249895573E0,-5.245656967E-1,9.731740952E-1
4.344633717E0,-1.148204088E0,-6.247148514E-1,9.757514000E-1
4.349397675E0,-1.084104776E0,-6.888298988E-1,9.253659248E-1
4.354161686E0,-1.011812687E0,-7.507438660E-1,8.705549240E-1
4.358925644E0,-9.525467753E-1,-8.345470428E-1,8.332347870E-1
4.363689654E0,-9.155591726E-1,-9.092440605E-1,7.801575661E-1
4.368453665E0,-8.717663884E-1,-9.891386032E-1,7.280502319E-1
4.373217623E0,-8.543455601E-1,-1.047775269E0,6.360349655E-1
4.377981634E0,-7.962537408E-1,-1.111237526E0,5.109200478E-1
4.382745644E0,-7.691348195E-1,-1.160037994E0,3.927254677E-1
4.387509602E0,-7.395635843E-1,-1.213023663E0,3.024091721E-1
4.392273613E0,-6.908633709E-1,-1.243658543E0,2.275428772E-1
4.397037571E0,-6.373373270E-1,-1.289978504E0,1.390295029E-1
4.401801582E0,-5.693795085E-1,-1.358950138E0,7.003211975E-2
4.406565592E0,-5.108545423E-1,-1.400360584E0,-9.460449219E-4
4.411329550E0,-4.497875571E-1,-1.462115765E0,-4.028511047E-2
4.416093561E0,-3.908730745E-1,-1.546669006E0,-9.323167801E-2
4.420857571E0,-3.100255132E-1,-1.572901249E0,-1.068539619E-1
4.425621529E0,-2.428482771E-1,-1.641346455E0,-1.383285522E-1
4.430385540E0,-1.724604368E-1,-1.668415546E0,-1.515569687E-1
4.435149498E0,-1.204247475E-1,-1.680495262E0,-1.416964531E-1
4.439913509E0,-4.619276524E-2,-1.651426792E0,-1.635460854E-1
4.444677519E0,-2.629524469E-2,-1.633944988E0,-1.738581657E-1
4.449441477E0,3.834545612E-3,-1.613803387E0,-2.154731750E-1
4.454205488E0,2.013111115E-2,-1.576891422E0,-2.473592758E-1
4.458969446E0,5.596524477E-2,-1.559253693E0,-2.835907936E-1
4.463733457E0,2.752840519E-2,-1.541918755E0,-2.999963760E-1
4.468497467E0,3.273659945E-2,-1.536960125E0,-3.298830986E-1
4.473261425E0,3.070515394E-2,-1.527752876E0,-3.372402191E-1
4.478025436E0,-9.809911251E-3,-1.492839336E0,-3.555226326E-1
4.482789446E0,-2.203387022E-2,-1.453834534E0,-4.228739738E-1
4.487553404E0,-2.290636301E-2,-1.427512646E0,-5.057559013E-1
4.492317415E0,-1.246201992E-2,-1.413826466E0,-5.731496811E-1
4.497081373E0,2.113461494E-3,-1.417489529E0,-6.299519539E-1
4.501845384E0,6.384927034E-2,-1.416893959E0,-6.930413246E-1
4.506609394E0,8.672034740E-2,-1.433412552E0,-7.506842613E-1
4.511373352E0,1.329662800E-1,-1.409686565E0,-8.267526627E-1
4.516137363E0,1.620942950E-1,-1.364881992E0,-9.140448570E-1
4.520901321E0,1.550672650E-1,-1.294234753E0,-1.007777214E0
4.525665332E0,1.359596252E-1,-1.286283970E0,-1.117354870E0
4.530429342E0,1.406306624E-1,-1.221495152E0,-1.156672955E0
4.535193300E0,1.306859255E-1,-1.174112797E0,-1.197399616E0
4.539957311E0,8.225351572E-2,-1.125012875E0,-1.232344866E0
4.544721269E0,2.166241407E-2,-1.100483894E0,-1.273472309E0
4.549485279E0,-2.008289099E-2,-1.055061340E0,-1.273033142E0
4.554249290E0,-3.090953827E-2,-1.015012264E0,-1.255040169E0
4.559013248E0,-5.387228727E-2,-9.706883430E-1,-1.276998997E0
4.563777259E0,-8.907294273E-2,-9.220829010E-1,-1.312610388E0
4.568541217E0,-7.925647497E-2,-8.906078339E-1,-1.309461594E0
4.573305227E0,-1.056954861E-1,-8.785977364E-1,-1.336952925E0
4.578069238E0,-8.958959579E-2,-8.429846764E-1,-1.375982523E0
4.582833196E0,-1.026791334E-1,-8.172097206E-1,-1.378814459E0
4.587597207E0,-1.091043949E-1,-8.107728958E-1,-1.379021406E0
4.592361165E0,-1.232824922E-1,-7.686719894E-1,-1.355127811E0
4.597125175E0,-1.380043626E-1,-7.243795395E-1,-1.314376354E0
4.601889186E0,-1.626093388E-1,-6.803340912E-1,-1.354663849E0
4.606653144E0,-1.990751624E-1,-6.818580627E-1,-1.392322540E0
4.611417154E0,-2.112248540E-1,-6.595988274E-1,-1.429687977E0
4.616181113E0,-2.277234793E-1,-6.159663200E-1,-1.423756361E0
4.620945123E0,-2.772527933E-1,-5.461931229E-1,-1.451079369E0
4.625709082E0,-3.695463538E-1,-4.454917908E-1,-1.463914633E0
4.630473092E0,-4.140651822E-1,-3.759908676E-1,-1.352460146E0
4.635237102E0,-4.157311320E-1,-3.329162598E-1,-1.334288597E0
4.640001061E0,-4.176211953E-1,-2.899284363E-1,-1.335225582E0
4.644765071E0,-3.623788357E-1,-2.757525444E-1,-1.240461588E0
4.649529029E0,-3.504676819E-1,-2.212095261E-1,-1.150236130E0
4.654293040E0,-3.435508609E-1,-1.790752411E-1,-1.116874695E0
4.659056998E0,-3.199838996E-1,-1.303367615E-1,-1.058845520E0
4.663821009E0,-2.846410871E-1,-1.109647751E-1,-9.903407097E-1
4.668585019E0,-2.565574646E-1,-9.229373932E-2,-9.041123390E-1
4.673348977E0,-2.405485511E-1,-4.804897308E-2,-8.264498711E-1
4.678112988E0,-2.150573730E-1,-4.514312744E-2,-7.645583153E-1
4.682876946E0,-2.230688334E-1,-1.424980164E-2,-7.159676552E-1
4.687640957E0,-2.430968285E-1,5.896663666E-2,-6.831030846E-1
4.692404915E0,-3.062169552E-1,1.601381302E-1,-6.779236794E-1
4.697168925E0,-3.310073614E-1,2.510766983E-1,-6.694474220E-1
4.701932936E0,-4.178902507E-1,3.294792175E-1,-6.506128311E-1
4.706696894E0,-4.640245438E-1,4.098014832E-1,-6.215910912E-1
4.711460904E0,-5.651017427E-1,4.849338531E-1,-5.609889030E-1
4.716224863E0,-6.136054993E-1,5.955562592E-1,-4.856495857E-1
4.720988873E0,-6.813232899E-1,6.867752075E-1,-4.626994133E-1
4.725752832E0,-7.157696486E-1,7.897300720E-1,-4.109005928E-1
4.730516842E0,-7.648248076E-1,8.972377777E-1,-3.685350418E-1
4.735280852E0,-8.215179443E-1,9.950160980E-1,-2.998585701E-1
4.740044811E0,-8.501541018E-1,1.075960159E0,-1.667699814E-1
4.744808821E0,-8.867418170E-1,1.176005363E0,-2.443408966E-2
4.749572779E0,-9.145144224E-1,1.256970406E0,9.355163574E-2
4.754336790E0,-8.903552294E-1,1.340399742E0,2.182826996E-1
4.759100748E0,-8.620615005E-1,1.419184685E0,3.854894638E-1
4.763864759E0,-7.433933020E-1,1.474271774E0,5.926513672E-1
4.768628769E0,-6.131846905E-1,1.553538322E0,7.751207352E-1
4.773392727E0,-4.495311677E-1,1.554157257E0,9.043345451E-1
4.778156738E0,-3.022956252E-1,1.578981400E0,1.054483414E0
4.782920696E0,-1.401892304E-1,1.572943687E0,1.223282814E0
4.787684707E0,-1.325410604E-2,1.571749687E0,1.408627033E0
4.792448665E0,8.849504590E-2,1.553623199E0,1.484309196E0
4.797212675E0,1.369243860E-1,1.568520546E0,1.493954659E0
4.801976686E0,6.331652403E-2,1.625758171E0,1.421291828E0
4.806740644E0,-6.991007924E-2,1.722663879E0,1.307465076E0
4.811504654E0,-3.153417408E-1,1.837552071E0,1.140806198E0
4.816268613E0,-5.947024822E-1,1.972935677E0,1.038205624E0
4.821032623E0,-8.087294698E-1,2.062127113E0,1.011029243E0
4.825796582E0,-1.013796091E0,2.129558563E0,9.937353134E-1
4.830560592E0,-1.137217522E0,2.233098030E0,1.006865025E0
4.835324550E0,-1.127803326E0,2.299141884E0,1.013495445E0
4.840088561E0,-1.005750060E0,2.366362572E0,1.058263302E0
4.844852571E0,-7.859669924E-1,2.370567322E0,1.150051117E0
4.849616529E0,-3.895733654E-1,2.338274956E0,1.231193542E0
4.854380540E0,3.809800744E-2,2.293385506E0,1.337705612E0
4.859144498E0,3.474513590E-1,2.316850662E0,1.451114655E0
4.863908509E0,9.913098216E-1,2.288670540E0,1.605727673E0
4.868672467E0,1.583419085E0,2.000771523E0,1.854572296E0
4.873436477E0,1.953804255E0,1.844910622E0,1.988213062E0
4.878200436E0,2.324474096E0,1.624418259E0,2.036468983E0
4.882964446E0,2.615801573E0,1.403462410E0,2.057578564E0
4.887728404E0,2.741273642E0,1.186489105E0,1.903976917E0
4.892492415E0,2.671447039E0,9.949436188E-1,1.626130104E0
4.897256373E0,2.349948883E0,8.912391663E-1,1.328754425E0
4.902020384E0,1.821974754E0,7.970333099E-1,1.111104965E0
4.906784342E0,1.174461484E0,6.915073395E-1,1.088913441E0
4.911548352E0,5.726630092E-1,5.731000900E-1,1.112287521E0
4.916312311E0,-4.797637463E-3,5.261077881E-1,1.079614162E0
4.921076321E0,-5.503263474E-1,5.078468323E-1,9.614853859E-1
4.925840332E0,-8.959565759E-1,4.660167694E-1,8.864388466E-1
4.930604290E0,-1.107960701E0,3.767127991E-1,8.759436607E-1
4.935368300E0,-1.242758632E0,2.421665192E-1,1.011519432E0
4.940132259E0,-1.241850615E0,1.024990082E-1,1.253336906E0
4.944896269E0,-1.163249731E0,-5.492496490E-2,1.502134800E0
4.949660227E0,-1.047454596E0,-1.878957748E-1,1.675775528E0
4.954424238E0,-8.389052153E-1,-3.212013245E-1,1.835665703E0
4.959188196E0,-5.869736075E-1,-4.603548050E-1,1.935355663E0
4.963952207E0,-3.048930764E-1,-6.560940742E-1,1.985500813E0
4.968716165E0,-5.120834708E-2,-8.179402351E-1,1.984504700E0
4.973480175E0,1.895928383E-1,-9.580936432E-1,1.913684845E0
4.978244134E0,4.019312263E-1,-1.047870159E0,1.727671146E0
4.983008144E0,5.560030937E-1,-1.168262005E0,1.454733849E0
4.987772102E0,6.790912151E-1,-1.220756054E0,1.129975796E0
4.992536113E0,7.432616353E-1,-1.278929710E0,7.715497017E-1
4.997300071E0,7.393789291E-1,-1.342054844E0,3.997530937E-1
5.002064082E0,7.130904198E-1,-1.392637253E0,5.390071869E-2
5.006828040E0,6.572751403E-1,-1.430160999E0,-2.693529129E-1
5.011592050E0,6.123231649E-1,-1.475664616E0,-5.852251053E-1
5.016356009E0,5.038985610E-1,-1.550283909E0,-8.489375114E-1
5.021120019E0,4.080937505E-1,-1.593955040E0,-1.044294357E0
5.025883977E0,2.933062911E-1,-1.616147518E0,-1.188301563E0
5.030647988E0,1.972741485E-1,-1.628887653E0,-1.228316307E0
5.035411946E0,1.552258432E-1,-1.665830612E0,-1.245368004E0
5.040175957E0,7.090844959E-2,-1.701013088E0,-1.191040277E0
5.044939915E0,1.783415675E-2,-1.746926785E0,-1.117054939E0
5.049703925E0,9.846374393E-3,-1.820869446E0,-1.058296442E0
5.054467936E0,-1.280039549E-3,-1.894677162E0,-1.004278183E0
5.059231894E0,4.145509005E-2,-1.949702263E0,-9.661884308E-1
5.063995904E0,6.595723331E-2,-1.998324394E0,-9.672799110E-1
5.068759863E0,4.561954737E-2,-1.997800350E0,-9.449934959E-1
5.073523873E0,4.463508725E-2,-1.960380077E0,-8.990340233E-1
5.078287832E0,3.397351503E-2,-1.910165787E0,-8.555240631E-1
5.083051842E0,3.267249465E-2,-1.873527050E0,-7.929015160E-1
5.087815800E0,5.769014359E-2,-1.850542068E0,-7.779655457E-1
5.092579811E0,1.119714677E-1,-1.824419498E0,-8.728551865E-1
5.097343769E0,1.173549443E-1,-1.802189350E0,-9.270806313E-1
5.102107779E0,1.677146703E-1,-1.764579773E0,-9.671878815E-1
5.106871738E0,2.325687706E-1,-1.763882160E0,-1.039052963E0
5.111635748E0,2.862127721E-1,-1.754287243E0,-1.140786648E0
5.116399707E0,3.028285205E-1,-1.709187984E0,-1.253729820E0
5.121163717E0,3.639242649E-1,-1.688055038E0,-1.349689722E0
5.125927675E0,4.026789069E-1,-1.669026852E0,-1.426803589E0
5.130691686E0,4.023689330E-1,-1.666214466E0,-1.521297693E0
5.135455644E0,4.012335241E-1,-1.619675159E0,-1.604753733E0
5.140219654E0,3.825163841E-1,-1.550811768E0,-1.701334476E0
5.144983613E0,3.460367322E-1,-1.452427864E0,-1.746587276E0
5.149747571E0,2.652670741E-1,-1.324535370E0,-1.771688223E0
5.154511582E0,1.828023940E-1,-1.193562508E0,-1.752624035E0
5.159275592E0,1.436259449E-1,-1.042957306E0,-1.672465324E0
5.164039550E0,1.209543049E-1,-9.565730095E-1,-1.578819275E0
5.168803561E0,1.049374938E-1,-8.772020340E-1,-1.468973160E0
5.173567519E0,1.024688184E-1,-8.123250008E-1,-1.383086920E0
5.178331477E0,1.039143205E-1,-7.597651482E-1,-1.316002846E0
5.183095488E0,1.091997027E-1,-6.815004349E-1,-1.267345667E0
5.187859446E0,1.062466800E-1,-5.776467323E-1,-1.215475559E0
5.192623457E0,1.307649314E-1,-4.483671188E-1,-1.141097069E0
5.197387415E0,1.492597461E-1,-3.271303177E-1,-1.077736378E0
5.202151425E0,2.167237401E-1,-2.425422668E-1,-9.968085289E-1
5.206915384E0,2.807795405E-1,-2.088079453E-1,-9.629788399E-1
5.211679394E0,3.847718239E-1,-1.731987000E-1,-9.189481735E-1
5.216443352E0,4.665862620E-1,-1.571416855E-1,-8.409519196E-1
5.221207363E0,5.407479405E-1,-1.103582382E-1,-7.554163933E-1
5.225971321E0,5.739594102E-1,-4.961967468E-2,-6.742801666E-1
5.230735332E0,6.215673685E-1,-1.077270508E-2,-6.501092911E-1
5.235499290E0,7.245970964E-1,1.335430145E-2,-6.230082512E-1
5.240263300E0,7.874539495E-1,3.938484192E-2,-5.449833870E-1
5.245027259E0,8.483930826E-1,3.619003296E-2,-4.375100136E-1
5.249791217E0,8.691210747E-1,4.434394836E-2,-3.554644585E-1
5.254555227E0,8.735825419E-1,6.858062744E-2,-3.154854774E-1
5.259319238E0,8.643085957E-1,2.991199493E-2,-2.647628784E-1
5.264083196E0,8.725807667E-1,9.639739990E-3,-2.390871048E-1
5.268847154E0,8.627095222E-1,1.969432831E-2,-2.192845345E-1
5.273611165E0,8.492089510E-1,5.043315887E-2,-2.363157272E-1
5.278375123E0,7.866789103E-1,1.280670166E-1,-2.756996155E-1
5.283139134E0,6.845237017E-1,2.262248993E-1,-2.871847153E-1
5.287903092E0,5.808378458E-1,3.018579483E-1,-3.233733177E-1
5.292667102E0,4.730188251E-1,3.598871231E-1,-3.939824104E-1
5.297431061E0,3.990992904E-1,4.124526978E-1,-4.729518890E-1
5.302195071E0,3.347957730E-1,4.908342361E-1,-5.223946571E-1
5.306959029E0,2.557536662E-1,5.784492493E-1,-5.498485565E-1
5.311723040E0,1.950336397E-1,6.563568115E-1,-5.294113159E-1
5.316486998E0,1.092492938E-1,8.083982468E-1,-5.164637566E-1
5.321250957E0,5.082124472E-2,9.796476364E-1,-5.040807724E-1
5.326014967E0,5.532997847E-2,1.108060837E0,-4.160265923E-1
5.330778925E0,6.765681505E-2,1.193712234E0,-3.337068558E-1
5.335542936E0,8.786571026E-2,1.298834801E0,-2.332954407E-1
5.340306894E0,1.397992373E-1,1.363595963E0,-8.605575562E-2
5.345070904E0,2.067465186E-1,1.452486992E0,1.272168159E-1
5.349834863E0,3.010211289E-1,1.486510277E0,3.062806129E-1
5.354598873E0,4.325984120E-1,1.532518387E0,5.112047195E-1
5.359362832E0,5.375889540E-1,1.547317505E0,6.825785637E-1
5.364126842E0,5.854671001E-1,1.576210022E0,8.374900818E-1
5.368890800E0,6.653354168E-1,1.592761993E0,9.499769211E-1
5.373654759E0,6.894009113E-1,1.572960854E0,1.018023968E0
5.378418769E0,6.774672270E-1,1.581223488E0,9.775190353E-1
5.383182727E0,5.846546292E-1,1.624737740E0,8.238191605E-1
5.387946738E0,3.872103989E-1,1.665258408E0,6.621894836E-1
5.392710696E0,1.590489149E-1,1.736406326E0,5.425381660E-1
5.397474707E0,-1.100202203E-1,1.809762001E0,4.068756104E-1
5.402238665E0,-3.634957671E-1,1.895198822E0,2.903904915E-1
5.407002675E0,-6.000854969E-1,1.973915100E0,2.353277206E-1
5.411766634E0,-8.732836246E-1,2.106001854E0,2.026124001E-1
5.416530592E0,-1.128990173E0,2.241507530E0,2.177877426E-1
5.421294602E0,-1.379992008E0,2.390249252E0,3.566184044E-1
5.426058561E0,-1.541040659E0,2.516555786E0,5.921349525E-1
5.430822571E0,-1.612773061E0,2.611009598E0,9.095468521E-1
5.435586529E0,-1.607560873E0,2.635305405E0,1.330385208E0
5.440350540E0,-1.520616770E0,2.594047546E0,1.718794346E0
5.445114498E0,-1.361056566E0,2.503703117E0,2.116174698E0
5.449878457E0,-1.085192919E0,2.342315674E0,2.509253025E0
5.454642467E0,-8.214018941E-1,2.209787369E0,2.789271355E0
5.459406425E0,-5.665343404E-1,2.098391533E0,2.990900993E0
5.464170436E0,-2.912232876E-1,1.943137169E0,3.239418030E0
5.468934394E0,4.571753740E-2,1.683888435E0,3.454393864E0
5.473698352E0,2.849603593E-1,1.447062492E0,3.569747925E0
5.478462363E0,4.802823663E-1,1.148575783E0,3.543469429E0
5.483226321E0,5.755382776E-1,8.241786957E-1,3.345135689E0
5.487990332E0,6.055043936E-1,5.288400650E-1,2.991909027E0
5.492754290E0,5.470506549E-1,2.101678848E-1,2.584082127E0
5.497518300E0,4.550957382E-1,-4.628181458E-3,2.197281837E0
5.502282259E0,2.665537298E-1,-1.173543930E-1,1.825325966E0
5.507046217E0,1.362001896E-2,-1.703567505E-1,1.531112671E0
5.511810227E0,-2.858725190E-1,-2.561731339E-1,1.310611248E0
5.516574186E0,-5.563806891E-1,-3.119802475E-1,1.069162369E0
5.521338196E0,-7.410246730E-1,-3.779821396E-1,7.771387100E-1
5.526102154E0,-8.949903250E-1,-4.037218094E-1,4.651060104E-1
5.530866113E0,-1.042002201E0,-3.962888718E-1,2.116761208E-1
5.535630123E0,-1.155692101E0,-4.059123993E-1,3.108978271E-2
5.540394082E0,-1.252706289E0,-4.135103226E-1,-8.382797241E-2
5.545158092E0,-1.335498571E0,-4.311475754E-1,-1.377449036E-1
5.549922050E0,-1.332599401E0,-4.590005875E-1,-1.662611961E-1
5.554686061E0,-1.337468028E0,-5.282630920E-1,-1.261558533E-1
5.559450019E0,-1.264249802E0,-5.721797943E-1,-4.340934753E-2
5.564213977E0,-1.182477951E0,-6.483373642E-1,5.839395523E-2
5.568977988E0,-1.080410242E0,-6.995468140E-1,1.772212982E-1
5.573741946E0,-9.987000227E-1,-7.571840286E-1,3.159856796E-1
5.578505904E0,-8.822252154E-1,-8.215136528E-1,4.417510033E-1
5.583269915E0,-7.715457678E-1,-9.023032188E-1,5.382385254E-1
5.588033873E0,-6.519982815E-1,-9.734282494E-1,5.604839325E-1
5.592797884E0,-5.902859569E-1,-9.968352318E-1,5.280508995E-1
5.597561842E0,-5.241590142E-1,-1.051473618E0,5.533828735E-1
5.602325852E0,-4.393447042E-1,-1.115744114E0,5.741596222E-1
5.607089811E0,-3.692886829E-1,-1.172792912E0,5.567297935E-1
5.611853769E0,-3.209938407E-1,-1.217755795E0,5.201001167E-1
5.616617779E0,-2.632303238E-1,-1.245748520E0,4.736623764E-1
5.621381738E0,-2.029926777E-1,-1.266352177E0,3.792204857E-1
5.626145696E0,-1.664275527E-1,-1.301012993E0,3.275356293E-1
5.630909707E0,-9.114038944E-2,-1.325850964E0,2.493548393E-1
5.635673665E0,-4.873192310E-2,-1.369561195E0,1.399583817E-1
5.640437675E0,-1.273345947E-2,-1.396396637E0,3.786659241E-2
5.645201634E0,1.440626383E-2,-1.415966034E0,-7.122659683E-2
5.649965592E0,2.067244053E-2,-1.423579216E0,-1.489443779E-1
5.654729602E0,5.129092932E-2,-1.397817612E0,-2.358441353E-1
5.659493561E0,4.874473810E-2,-1.400902748E0,-2.888445854E-1
5.664257519E0,4.138559103E-2,-1.416119576E0,-3.939852715E-1
5.669021529E0,7.209461927E-2,-1.436324120E0,-4.651188850E-1
5.673785488E0,9.282511473E-2,-1.451966763E0,-5.524744987E-1
5.678549498E0,1.298524141E-1,-1.424840927E0,-6.344900131E-1
5.683313457E0,1.257619858E-1,-1.431490421E0,-7.207078934E-1
5.688077415E0,1.689712405E-1,-1.455221176E0,-7.894968987E-1
5.692841425E0,2.068956792E-1,-1.460179806E0,-8.289012909E-1
5.697605384E0,2.634413242E-1,-1.465633869E0,-8.913173676E-1
5.702369342E0,3.052813709E-1,-1.483614922E0,-9.908988476E-1
5.707133352E0,3.299797475E-1,-1.509391785E0,-1.053415060E0
5.711897311E0,3.542974293E-1,-1.519031525E0,-1.112417698E0
5.716661321E0,3.567581475E-1,-1.560364246E0,-1.158329964E0
5.721425279E0,3.135718703E-1,-1.599812508E0,-1.227142811E0
5.726189238E0,2.678722739E-1,-1.601450443E0,-1.309405327E0
5.730953248E0,1.863057911E-1,-1.596285343E0,-1.371814728E0
5.735717207E0,1.406135857E-1,-1.617635250E0,-1.433772087E0
5.740481165E0,8.543753624E-2,-1.615154743E0,-1.459633827E0
5.745245175E0,2.803415060E-2,-1.670002460E0,-1.492671490E0
5.750009134E0,-1.480984688E-2,-1.688836098E0,-1.528203249E0
5.754773092E0,-5.246818066E-2,-1.669239998E0,-1.559152603E0
5.759537102E0,-8.725595474E-2,-1.630379677E0,-1.614201307E0
5.764301061E0,-1.143971682E-1,-1.598491669E0,-1.691057444E0
5.769065071E0,-1.483301520E-1,-1.552069187E0,-1.727552414E0
5.773829029E0,-1.748191714E-1,-1.512688160E0,-1.747562647E0
5.778592988E0,-1.915441155E-1,-1.470778465E0,-1.770237684E0
5.783356946E0,-2.009389997E-1,-1.462116241E0,-1.812432528E0
5.788120957E0,-2.435390949E-1,-1.405366898E0,-1.864619255E0
5.792884915E0,-2.764751315E-1,-1.307684898E0,-1.845678329E0
5.797648925E0,-3.213691115E-1,-1.193013191E0,-1.815465450E0
5.802412884E0,-3.424935937E-1,-1.085261822E0,-1.752514362E0
5.807176842E0,-3.828902245E-1,-9.534115791E-1,-1.680665255E0
5.811940852E0,-4.136940241E-1,-8.573026657E-1,-1.563948631E0
5.816704811E0,-4.636556506E-1,-7.706928253E-1,-1.411832571E0
5.821468769E0,-4.969670773E-1,-6.865801811E-1,-1.271858454E0
5.826232779E0,-5.159303546E-1,-6.314444542E-1,-1.129328489E0
5.830996738E0,-4.942251444E-1,-5.886664391E-1,-1.000727892E0
5.835760696E0,-5.035569668E-1,-5.870547295E-1,-8.977408409E-1
5.840524707E0,-4.986965656E-1,-5.454368591E-1,-7.771210670E-1
5.845288665E0,-5.300644040E-1,-5.021486282E-1,-7.081365585E-1
5.850052623E0,-5.930893421E-1,-4.931216240E-1,-6.260914803E-1
5.854816634E0,-6.495928168E-1,-4.704809189E-1,-5.645322800E-1
5.859580592E0,-7.020607591E-1,-4.175310135E-1,-4.732255936E-1
5.864344550E0,-7.481386065E-1,-3.510274887E-1,-4.263129234E-1
5.869108561E0,-8.259771466E-1,-2.637891769E-1,-4.309444427E-1
5.873872519E0,-9.306769371E-1,-1.749000549E-1,-4.226164818E-1
5.878636477E0,-1.050249219E0,-4.125404358E-2,-4.325633049E-1
5.883400488E0,-1.182482958E0,1.085672379E-1,-3.630475998E-1
5.888164446E0,-1.253452539E0,2.603006363E-1,-2.430191040E-1
5.892928404E0,-1.301849723E0,4.187850952E-1,-5.355691910E-2
5.897692415E0,-1.318316698E0,6.007566452E-1,9.290027618E-2
5.902456373E0,-1.286007404E0,7.774610519E-1,2.228035927E-1
5.907220332E0,-1.252544880E0,9.225654602E-1,3.673539162E-1
5.911984342E0,-1.167614579E0,1.069465637E0,5.052304268E-1
5.916748300E0,-1.071760416E0,1.153470039E0,6.773719788E-1
5.921512259E0,-9.506407976E-1,1.231987000E0,8.599009514E-1
5.926276269E0,-8.256602883E-1,1.314503670E0,1.069700718E0
5.931040227E0,-6.798696518E-1,1.374623299E0,1.199402809E0
5.935804186E0,-5.368895531E-1,1.414848328E0,1.327866077E0
5.940568196E0,-3.941084146E-1,1.440052032E0,1.452617645E0
5.945332154E0,-2.441573739E-1,1.474265099E0,1.597379684E0
5.950096113E0,-5.104058981E-2,1.498420715E0,1.742928028E0
5.954860071E0,1.136819422E-1,1.493462563E0,1.848553181E0
5.959624082E0,3.245955110E-1,1.425988197E0,1.892801762E0
5.964388040E0,5.223858953E-1,1.346185684E0,1.909356594E0
5.969151998E0,6.718896627E-1,1.270702362E0,1.831541538E0
5.973916009E0,7.640913129E-1,1.230429649E0,1.647848606E0
5.978679967E0,7.398987412E-1,1.251526833E0,1.387264252E0
5.983443925E0,6.260045767E-1,1.288502693E0,1.054706573E0
5.988207936E0,3.648360074E-1,1.394121170E0,7.717757225E-1
5.992971894E0,5.126660317E-2,1.506506920E0,6.118574142E-1
5.997735852E0,-2.297528833E-1,1.587819099E0,5.644574165E-1
6.002499811E0,-4.530846477E-1,1.679244995E0,5.137114525E-1
6.007263821E0,-6.436188817E-1,1.848236084E0,4.537506104E-1
6.012027779E0,-7.567901611E-1,2.047281265E0,4.387536049E-1
6.016791738E0,-7.980148792E-1,2.250288963E0,4.609761238E-1
6.021555748E0,-7.126406431E-1,2.443062782E0,5.272064209E-1
6.026319707E0,-5.436916351E-1,2.520428658E0,6.541461945E-1
6.031083665E0,-3.123877645E-1,2.496664047E0,8.349442482E-1
6.035847623E0,-8.768819273E-3,2.395518303E0,1.129807949E0
6.040611634E0,3.510190845E-1,2.219089508E0,1.465281487E0
6.045375592E0,6.984522939E-1,2.029132843E0,1.684525967E0
6.050139550E0,1.010738969E0,1.882645607E0,1.788426399E0
6.054903561E0,1.334397078E0,1.666932106E0,1.873349667E0
6.059667519E0,1.577306032E0,1.463000298E0,1.930403709E0
6.064431477E0,1.707046509E0,1.263515472E0,1.914499283E0
6.069195488E0,1.726871371E0,1.025395393E0,1.770884991E0
6.073959446E0,1.661199331E0,8.157806396E-1,1.618878365E0
6.078723404E0,1.505206704E0,6.588354111E-1,1.417305470E0
6.083487363E0,1.251122713E0,5.191450119E-1,1.256106853E0
6.088251373E0,9.669951200E-1,4.545316696E-1,1.246613979E0
6.093015332E0,7.087818384E-1,3.888444901E-1,1.289839745E0
6.097779290E0,4.202440083E-1,2.936220169E-1,1.323143959E0
6.102543248E0,2.102824748E-1,1.951770782E-1,1.353703976E0
6.107307259E0,7.103855908E-2,7.892417908E-2,1.367642879E0
6.112071217E0,-4.809324443E-2,-2.447891235E-2,1.353851795E0
6.116835175E0,-1.426588595E-1,-1.394233704E-1,1.377787590E0
6.121599186E0,-2.392805517E-1,-2.018775940E-1,1.390153885E0
6.126363144E0,-3.455081582E-1,-2.314281464E-1,1.415590763E0
6.131127102E0,-3.804355264E-1,-2.092819214E-1,1.425897598E0
6.135891061E0,-3.707942665E-1,-2.097501755E-1,1.438078403E0
6.140655071E0,-3.215213716E-1,-1.993455887E-1,1.425819874E0
6.145419029E0,-2.109009326E-1,-2.449092865E-1,1.338799000E0
6.150182988E0,-5.531513691E-2,-3.199195862E-1,1.229396820E0
6.154946946E0,1.769430637E-1,-4.312305450E-1,1.087598801E0
6.159710957E0,4.126232266E-1,-5.402927399E-1,9.058284760E-1
6.164474915E0,6.025061607E-1,-6.563920975E-1,7.266840935E-1
6.169238873E0,7.882248163E-1,-7.505512238E-1,5.520591736E-1
6.174002884E0,9.157029390E-1,-8.369240761E-1,3.935284615E-1
6.178766842E0,9.857251644E-1,-9.105472565E-1,2.220587730E-1
6.183530800E0,1.005974412E0,-9.761176109E-1,4.945087433E-2
6.188294759E0,1.003022194E0,-1.050225258E0,-1.102242470E-1
6.193058769E0,9.601844549E-1,-1.130466938E0,-2.115669250E-1
6.197822727E0,8.892947435E-1,-1.204816818E0,-3.264670372E-1
6.202586686E0,7.827837467E-1,-1.304298401E0,-4.334969521E-1
6.207350644E0,6.927604079E-1,-1.390616417E0,-4.920873642E-1
6.212114602E0,5.635595918E-1,-1.463873863E0,-4.997582436E-1
6.216878613E0,4.781585336E-1,-1.450106144E0,-4.946341515E-1
6.221642571E0,3.450545967E-1,-1.464365005E0,-4.643754959E-1
6.226406529E0,2.568155527E-1,-1.504543304E0,-4.180183411E-1
6.231170488E0,2.273869365E-1,-1.492085934E0,-3.836536407E-1
6.235934498E0,1.607566774E-1,-1.527764797E0,-3.726334572E-1
6.240698457E0,1.570946276E-1,-1.590331078E0,-3.963313103E-1
6.245462415E0,1.468681395E-1,-1.613097191E0,-4.303612709E-1
6.250226373E0,1.513742208E-1,-1.605866432E0,-4.552831650E-1
6.254990384E0,1.632447839E-1,-1.578304768E0,-5.140414238E-1
6.259754342E0,1.490138173E-1,-1.540011883E0,-5.540137291E-1
6.264518300E0,1.494611502E-1,-1.507696629E0,-6.278614998E-1
6.269282259E0,1.718799770E-1,-1.478845596E0,-6.831803322E-1
6.274046269E0,2.095377445E-1,-1.455724239E0,-7.488455772E-1
6.278810227E0,2.963236570E-1,-1.459672451E0,-8.274855614E-1
6.283574186E0,3.779719770E-1,-1.461754322E0,-9.194200039E-1
6.288338144E0,4.575178623E-1,-1.452168465E0,-1.053694487E0
6.293102102E0,5.354888439E-1,-1.445057392E0,-1.168455839E0
6.297866113E0,5.571386814E-1,-1.449765682E0,-1.261707544E0
6.302630071E0,5.991235375E-1,-1.437391758E0,-1.326682806E0
6.307394029E0,5.944929123E-1,-1.436460018E0,-1.382857561E0
6.312158040E0,5.982246995E-1,-1.437333107E0,-1.427972555E0
6.316921998E0,6.005815864E-1,-1.428049088E0,-1.485978842E0
6.321685957E0,5.200916529E-1,-1.389556408E0,-1.497030258E0
6.326449915E0,4.449340403E-1,-1.388878822E0,-1.513656855E0
6.331213873E0,3.867200613E-1,-1.409337044E0,-1.502252340E0
6.335977884E0,3.330966830E-1,-1.400815010E0,-1.453151703E0
6.340741842E0,2.956656218E-1,-1.361056328E0,-1.385377169E0
6.345505800E0,2.408138812E-1,-1.290217876E0,-1.341768026E0
6.350269759E0,2.018517256E-1,-1.207633018E0,-1.310039997E0
6.355033769E0,1.954303086E-1,-1.127800941E0,-1.297093630E0
6.359797727E0,1.618047357E-1,-1.060423851E0,-1.276340008E0
6.364561686E0,1.941498816E-1,-1.034191608E0,-1.250147343E0
6.369325644E0,2.161103189E-1,-1.015600204E0,-1.228045702E0
6.374089602E0,2.468563020E-1,-9.878478050E-1,-1.202976704E0
6.378853613E0,2.411145568E-1,-9.294505119E-1,-1.227475166E0
6.383617571E0,2.563387752E-1,-8.809022903E-1,-1.187079906E0
6.388381529E0,3.046784401E-1,-8.277359009E-1,-1.144196033E0
6.393145488E0,3.647492826E-1,-7.530755997E-1,-1.079967260E0
6.397909446E0,4.127134383E-1,-6.664643288E-1,-1.035121441E0
6.402673457E0,4.559094012E-1,-5.941977501E-1,-1.007238388E0
6.407437415E0,5.471453071E-1,-5.793008804E-1,-9.794993401E-1
6.412201373E0,6.483449936E-1,-5.834593773E-1,-9.112629890E-1
6.416965332E0,7.262345552E-1,-5.684747696E-1,-8.430702686E-1
6.421729290E0,7.977050543E-1,-5.367746353E-1,-7.724952698E-1
6.426493300E0,8.581197262E-1,-4.717836380E-1,-6.873304844E-1
6.431257259E0,9.386860132E-1,-4.739208221E-1,-6.305913925E-1
6.436021217E0,1.013229728E0,-4.476175308E-1,-6.139717102E-1
6.440785175E0,9.813772440E-1,-4.384365082E-1,-6.348094940E-1
6.445549134E0,9.269737005E-1,-3.651494980E-1,-6.308202744E-1
6.450313144E0,8.737242222E-1,-3.210821152E-1,-6.449928284E-1
6.455077102E0,7.497712374E-1,-2.535772324E-1,-6.367683411E-1
6.459841061E0,6.696404219E-1,-1.436843872E-1,-4.458241463E-1
6.464605019E0,6.420853138E-1,7.533073425E-2,-1.941065788E-1
6.469368977E0,5.110483170E-1,2.670783997E-1,-1.254692078E-1
6.474132988E0,2.981078327E-1,4.244985580E-1,-3.258523941E-1
6.478896946E0,1.016187966E-1,4.475202560E-1,-5.946216583E-1
6.483660904E0,1.023632288E-2,4.823369980E-1,-7.361543179E-1
6.488424863E0,-3.647536039E-2,6.340961456E-1,-6.431524754E-1
6.493188821E0,-8.213216066E-2,7.974720001E-1,-4.951634407E-1
6.497952779E0,-1.105459929E-1,9.317512512E-1,-4.021277428E-1
6.502716790E0,-9.067451954E-2,1.015405655E0,-4.044942856E-1
6.507480748E0,2.318310738E-2,1.055533409E0,-4.205842018E-1
6.512244707E0,1.547113955E-1,1.040223122E0,-4.407486916E-1
6.517008665E0,3.185649812E-1,1.029312134E0,-3.693742752E-1
6.521772623E0,4.313330352E-1,1.049194336E0,-2.784447670E-1
6.526536634E0,5.483536720E-1,1.090373993E0,-1.968135834E-1
6.531300592E0,6.723851562E-1,1.181631088E0,-8.881759644E-2
6.536064550E0,7.130848765E-1,1.263279915E0,-7.239341736E-3
6.540828509E0,7.857351899E-1,1.318716049E0,6.450843811E-2
6.545592467E0,8.790528774E-1,1.328943253E0,1.502466202E-1
6.550356477E0,9.241082668E-1,1.282107353E0,1.901779175E-1
6.555120436E0,9.666022658E-1,1.259552002E0,2.297587395E-1
6.559884394E0,9.230856895E-1,1.249258995E0,2.571372986E-1
6.564648352E0,8.007450700E-1,1.236847878E0,2.628178596E-1
6.569412311E0,6.615163088E-1,1.322628021E0,2.086901665E-1
6.574176269E0,4.139631987E-1,1.432329178E0,1.737480164E-1
6.578940279E0,1.406894028E-1,1.570662498E0,1.698513031E-1
6.583704238E0,-1.690703034E-1,1.711256981E0,1.873130798E-1
6.588468196E0,-3.968104124E-1,1.827727318E0,2.118158340E-1
6.593232154E0,-5.626916289E-1,1.900979996E0,1.643457413E-1
6.597996113E0,-6.314855814E-1,1.974062920E0,1.620478630E-1
6.602760071E0,-6.919847131E-1,2.073309898E0,2.214593887E-1
6.607524029E0,-6.507468820E-1,2.193943977E0,3.400731087E-1
6.612288040E0,-5.312287211E-1,2.348002434E0,5.320005417E-1
6.617051998E0,-4.214303493E-1,2.439999580E0,8.279981613E-1
6.621815957E0,-2.729427814E-1,2.467652321E0,1.175382614E0
6.626579915E0,-1.519077420E-1,2.483559608E0,1.466794968E0
6.631343873E0,-1.917541027E-2,2.456556320E0,1.721775055E0
6.636107832E0,1.020504534E-1,2.391303062E0,1.938441277E0
6.640871842E0,2.793259919E-1,2.290120125E0,2.155402660E0
6.645635800E0,4.511864185E-1,2.138661385E0,2.322667599E0
6.650399759E0,5.680329800E-1,1.965674400E0,2.449908257E0
6.655163717E0,6.590086818E-1,1.771195412E0,2.532417774E0
6.659927675E0,6.982867718E-1,1.543273926E0,2.570359230E0
6.664691634E0,6.743605137E-1,1.248536110E0,2.532683849E0
6.669455592E0,5.780543685E-1,9.564704895E-1,2.393039703E0
6.674219602E0,4.381400347E-1,7.269372940E-1,2.191944122E0
6.678983561E0,2.112398744E-1,5.313901901E-1,1.957687855E0
6.683747519E0,-6.526249647E-2,3.843717575E-1,1.766158104E0
6.688511477E0,-3.447911143E-1,2.573814392E-1,1.587944508E0
6.693275436E0,-6.191136241E-1,1.650037766E-1,1.474821091E0
6.698039394E0,-8.200858831E-1,8.586025238E-2,1.352061272E0
6.702803404E0,-9.652204514E-1,1.287841797E-2,1.276637554E0
6.707567363E0,-1.059679508E0,-2.287769318E-2,1.219723701E0
6.712331321E0,-1.060615420E0,-5.741310120E-2,1.224515915E0
6.717095279E0,-1.032423019E0,-6.235408783E-2,1.229489326E0
6.721859238E0,-9.793943763E-1,-6.197738647E-2,1.240253925E0
6.726623196E0,-9.225581884E-1,-6.623649597E-2,1.197989941E0
6.731387154E0,-8.829336762E-1,-7.786273956E-2,1.160953999E0
6.736151113E0,-8.960164785E-1,-8.031177521E-2,1.143959522E0
6.740915123E0,-8.874344230E-1,-5.931091309E-2,1.101725578E0
6.745679082E0,-8.667293191E-1,-6.738376617E-2,1.050838947E0
6.750443040E0,-8.555871248E-1,-9.239196777E-2,1.005290031E0
6.755206998E0,-8.231680989E-1,-1.389007568E-1,9.239811897E-1
6.759970957E0,-7.840087414E-1,-1.970863342E-1,8.279132843E-1
6.764734915E0,-7.600100636E-1,-2.379550934E-1,7.426705360E-1
6.769498873E0,-6.966248751E-1,-2.518682480E-1,6.727137566E-1
6.774262832E0,-6.443014145E-1,-3.295812607E-1,5.484871864E-1
6.779026790E0,-5.767158270E-1,-4.040842056E-1,4.775738716E-1
6.783790800E0,-4.509142637E-1,-4.539690018E-1,4.505615234E-1
6.788554759E0,-3.456862569E-1,-5.032882690E-1,4.724788666E-1
6.793318717E0,-2.322551608E-1,-5.760478973E-1,4.574832916E-1
6.798082675E0,-1.414329410E-1,-6.412315369E-1,4.010787010E-1
6.802846634E0,-4.425168037E-2,-6.630830765E-1,3.346109390E-1
6.807610592E0,4.029119015E-2,-6.894979477E-1,2.773404121E-1
6.812374550E0,1.553795338E-1,-6.895112991E-1,2.343010902E-1
6.817138561E0,2.606063485E-1,-7.300472260E-1,2.078576088E-1
6.821902519E0,3.608753085E-1,-7.513933182E-1,1.838536263E-1
6.826666477E0,4.539650083E-1,-7.751789093E-1,1.362214088E-1
6.831430436E0,5.353954434E-1,-8.205533028E-1,6.271839142E-2
6.836194394E0,6.149049997E-1,-8.469099998E-1,3.280305862E-2
6.840958352E0,6.545606852E-1,-8.853526115E-1,1.065015793E-2
6.845722311E0,6.834533811E-1,-8.928132057E-1,-4.201030731E-2
6.850486269E0,7.114765644E-1,-9.146990776E-1,-1.419019699E-1
6.855250227E0,7.029753327E-1,-8.911533356E-1,-2.102575302E-1
6.860014238E0,6.436061859E-1,-8.819122314E-1,-2.831120491E-1
6.864778196E0,5.785712600E-1,-9.036297798E-1,-3.223786354E-1
6.869542154E0,5.051809549E-1,-9.178800583E-1,-3.260569572E-1
6.874306113E0,4.613232613E-1,-9.461336136E-1,-3.684258461E-1
6.879070071E0,3.606309891E-1,-9.908161163E-1,-4.183061123E-1
6.883834029E0,2.508428693E-1,-1.018602371E0,-4.777889252E-1
6.888597988E0,1.554876566E-1,-1.058365345E0,-5.346364975E-1
6.893361946E0,7.426983118E-2,-1.112680912E0,-5.407075882E-1
6.898125904E0,4.378557205E-3,-1.184143543E0,-5.458936691E-1
6.902889863E0,-1.142985821E-1,-1.260948658E0,-5.427742004E-1
6.907653821E0,-1.576142907E-1,-1.314532757E0,-6.076438427E-1
6.912417832E0,-2.217103839E-1,-1.342668056E0,-6.566131115E-1
6.917181790E0,-3.115550280E-1,-1.340687275E0,-7.230515480E-1
6.921945748E0,-3.676764965E-1,-1.287162781E0,-7.567312717E-1
6.926709707E0,-3.901199102E-1,-1.256255150E0,-7.983000278E-1
6.931473665E0,-4.075589180E-1,-1.192899227E0,-8.478739262E-1
6.936237623E0,-3.861383796E-1,-1.116228580E0,-9.245362282E-1
6.941001582E0,-3.684437275E-1,-1.090689659E0,-1.009225607E0
6.945765540E0,-3.228594065E-1,-1.087356567E0,-1.121299267E0
6.950529498E0,-2.704875469E-1,-1.091650009E0,-1.215648890E0
6.955293457E0,-1.871133447E-1,-1.115271568E0,-1.271191835E0
6.960057415E0,-9.612929821E-2,-1.150733948E0,-1.302800894E0
6.964821425E0,-2.345043421E-2,-1.152373314E0,-1.353936911E0
6.969585384E0,6.481254101E-2,-1.108096123E0,-1.398593664E0
6.974349342E0,1.113880277E-1,-1.113479614E0,-1.451254129E0
6.979113300E0,1.211482882E-1,-1.118251324E0,-1.459384680E0
6.983877259E0,1.658850312E-1,-1.163026333E0,-1.468470335E0
6.988641217E0,1.475352645E-1,-1.235862732E0,-1.466458559E0
6.993405175E0,1.115856767E-1,-1.281797886E0,-1.481966019E0
6.998169134E0,6.732749939E-2,-1.300949097E0,-1.464665651E0
7.002933092E0,-2.382075787E-2,-1.260048389E0,-1.443022966E0
7.007697050E0,-1.622179151E-1,-1.226198196E0,-1.407334805E0
7.012461009E0,-2.861495614E-1,-1.211501122E0,-1.338254452E0
7.017224967E0,-4.080012441E-1,-1.177808762E0,-1.273904324E0
7.021988925E0,-5.066968203E-1,-1.163605690E0,-1.218695641E0
7.026752884E0,-5.467984676E-1,-1.133137703E0,-1.131816626E0
7.031516842E0,-5.906922817E-1,-1.079379082E0,-1.087178469E0
7.036280852E0,-6.290671229E-1,-1.038311005E0,-1.060665846E0
7.041044811E0,-6.597182155E-1,-1.002697468E0,-1.038041830E0
7.045808769E0,-6.540796757E-1,-9.414463043E-1,-1.005004406E0
7.050572727E0,-6.146759391E-1,-8.880133629E-1,-9.520766735E-1
7.055336686E0,-5.893324018E-1,-8.112492561E-1,-8.937475681E-1
7.060100644E0,-5.539045334E-1,-7.063884735E-1,-8.897440434E-1
7.064864602E0,-4.889308810E-1,-5.926294327E-1,-8.681411743E-1
7.069628561E0,-4.489841461E-1,-5.201826096E-1,-8.646969795E-1
7.074392519E0,-3.808501959E-1,-4.436655045E-1,-8.313374519E-1
7.079156477E0,-3.243961930E-1,-3.988418579E-1,-7.920444012E-1
7.083920436E0,-2.671029568E-1,-3.257904053E-1,-7.661366463E-1
7.088684394E0,-2.421652079E-1,-2.364664078E-1,-7.488348484E-1
7.093448352E0,-2.373542190E-1,-1.402626038E-1,-7.715475559E-1
7.098212311E0,-2.192509770E-1,-9.202861786E-2,-7.914714813E-1
7.102976269E0,-2.548885942E-1,-1.029586792E-2,-8.209004402E-1
7.107740227E0,-2.872070670E-1,5.965423584E-2,-8.148038387E-1
7.112504186E0,-3.142701983E-1,1.203050613E-1,-7.328393459E-1
7.117268196E0,-3.675514460E-1,2.339019775E-1,-6.637794971E-1
7.122032102E0,-4.449397922E-1,3.430538177E-1,-5.599274635E-1
7.126796113E0,-5.011330843E-1,4.764385223E-1,-4.261164665E-1
7.131560071E0,-5.577524304E-1,6.292362213E-1,-2.623836994E-1
7.136324029E0,-5.885595083E-1,7.583637238E-1,-7.346630096E-2
7.141087988E0,-5.721534491E-1,8.995838165E-1,1.169381142E-1
7.145851946E0,-5.565022230E-1,9.881877899E-1,3.163275719E-1
7.150615904E0,-4.890809655E-1,1.031261444E0,4.915485382E-1
7.155379863E0,-4.272959232E-1,1.069346428E0,7.098574638E-1
7.160143821E0,-3.592029810E-1,1.135688782E0,9.238686562E-1
7.164907779E0,-2.775278687E-1,1.170267105E0,1.086318493E0
7.169671738E0,-1.700999737E-1,1.192066193E0,1.247862339E0
7.174435696E0,-8.195179701E-2,1.181862831E0,1.401658058E0
7.179199654E0,3.539112210E-2,1.173077583E0,1.519273758E0
7.183963613E0,1.085932851E-1,1.153628349E0,1.582010269E0
7.188727571E0,1.766955853E-1,1.209524155E0,1.559043884E0
7.193491529E0,1.208759844E-1,1.297569275E0,1.388614178E0
7.198255488E0,-4.641172290E-2,1.444032669E0,1.135457516E0
7.203019446E0,-2.964959145E-1,1.594122887E0,8.493714333E-1
7.207783404E0,-5.224552155E-1,1.709975243E0,6.251473427E-1
7.212547363E0,-7.614874840E-1,1.753949165E0,4.470613003E-1
7.217311321E0,-8.907730579E-1,1.750570297E0,4.021430016E-1
7.222075279E0,-9.547849298E-1,1.781645775E0,3.814156055E-1
7.226839238E0,-9.379236698E-1,1.790142059E0,3.503966331E-1
7.231603196E0,-8.742564917E-1,1.855225563E0,2.916195393E-1
7.236367154E0,-7.352402210E-1,1.974531174E0,2.789304256E-1
7.241131113E0,-5.396989584E-1,2.054729462E0,3.243322372E-1
7.245895071E0,-2.703031301E-1,2.045417786E0,4.977328777E-1
7.250659029E0,1.885822415E-2,2.015662193E0,7.568480968E-1
7.255422988E0,3.120513856E-1,1.967450142E0,1.035736799E0
7.260186946E0,5.864427686E-1,1.886121750E0,1.222939014E0
7.264950957E0,8.286896348E-1,1.831166267E0,1.316927433E0
7.269714863E0,1.034772635E0,1.766437531E0,1.406901121E0
7.274478821E0,1.198106766E0,1.729990005E0,1.402519226E0
7.279242832E0,1.309630990E0,1.685794830E0,1.282750845E0
7.284006790E0,1.365123749E0,1.629157066E0,1.030845642E0
7.288770696E0,1.297866106E0,1.534048080E0,7.443778515E-1
7.293534707E0,1.165100098E0,1.439146042E0,5.658428669E-1
7.298298665E0,1.014061928E0,1.330595970E0,4.461181164E-1
7.303062623E0,7.818179131E-1,1.206501961E0,3.648157120E-1
7.307826529E0,5.466924906E-1,1.081585884E0,3.161966801E-1
7.312590540E0,3.105839491E-1,9.441289902E-1,3.163626194E-1
7.317354446E0,1.184888035E-1,8.491563797E-1,3.029901981E-1
7.322118457E0,-5.628472567E-2,7.701988220E-1,3.218123913E-1
7.326882415E0,-2.045801878E-1,6.806964874E-1,3.614425659E-1
7.331646373E0,-3.314842284E-1,5.970926285E-1,4.488584995E-1
7.336410279E0,-4.374509454E-1,5.094556808E-1,5.920422077E-1
7.341174290E0,-4.966322780E-1,4.341602325E-1,7.630648613E-1
7.345938248E0,-5.451965332E-1,3.398103714E-1,9.028637409E-1
7.350702207E0,-4.971457720E-1,2.452859879E-1,1.021630764E0
7.355466165E0,-4.386614561E-1,1.504182816E-1,1.067197561E0
7.360230123E0,-3.743126392E-1,6.466674805E-2,1.099632263E0
7.364994082E0,-2.776448131E-1,-3.832340240E-2,1.088005066E0
7.369757988E0,-1.890352368E-1,-1.273937225E-1,1.058511734E0
7.374521946E0,-9.628689289E-2,-2.646169662E-1,1.008611202E0
7.379285904E0,5.758047104E-3,-4.330530167E-1,9.093198776E-1
7.384049863E0,9.595066309E-2,-5.751333237E-1,7.699012756E-1
7.388813821E0,1.531568915E-1,-6.907320023E-1,6.091907024E-1
7.393577779E0,1.800098121E-1,-8.012247086E-1,4.555361271E-1
7.398341790E0,1.910459846E-1,-9.111938477E-1,2.989268303E-1
7.403105696E0,1.600787342E-1,-9.942007065E-1,2.298603058E-1
7.407869654E0,1.515908539E-1,-1.064518929E0,1.739208698E-1
7.412633613E0,1.680649519E-1,-1.114912033E0,1.380994320E-1
7.417397571E0,1.546700299E-1,-1.164551735E0,8.185672760E-2
7.422161529E0,1.497434676E-1,-1.227877617E0,1.503419876E-2
7.426925488E0,1.390056014E-1,-1.281108379E0,-6.202530861E-2
7.431689446E0,1.415781379E-1,-1.338755608E0,-1.106905937E-1
7.436453404E0,1.309953630E-1,-1.386700630E0,-1.352810860E-1
7.441217363E0,9.016898274E-2,-1.477640629E0,-1.619119644E-1
7.445981321E0,5.698359013E-2,-1.542399883E0,-2.165105343E-1
7.450745830E0,1.908016205E-2,-1.595441818E0,-2.821710110E-1
7.455509789E0,-2.628666162E-2,-1.658369541E0,-3.826644421E-1
7.460273747E0,-6.525826454E-2,-1.709762096E0,-4.508988857E-1
7.465037705E0,-1.340233684E-1,-1.747323036E0,-5.274407864E-1
7.469801664E0,-1.875724196E-1,-1.799830914E0,-6.097993851E-1
7.474565622E0,-2.502474785E-1,-1.833858967E0,-6.621046066E-1
7.479329580E0,-3.007735014E-1,-1.837457180E0,-7.060165405E-1
7.484093539E0,-3.297207355E-1,-1.834658146E0,-7.772254944E-1
7.488857497E0,-3.155705333E-1,-1.866053104E0,-8.662464619E-1
7.493621455E0,-3.130923510E-1,-1.893280029E0,-9.732024670E-1
7.498385414E0,-2.981088161E-1,-1.916273594E0,-1.079071045E0
7.503149372E0,-2.750856876E-1,-1.901454449E0,-1.136278391E0
7.507913330E0,-2.222117186E-1,-1.884547234E0,-1.207335949E0
7.512677289E0,-1.726084352E-1,-1.848664761E0,-1.287725925E0
7.517441247E0,-9.242856503E-2,-1.803292274E0,-1.365635633E0
7.522205205E0,-2.904653549E-2,-1.774630070E0,-1.467501402E0
7.526969164E0,7.281345129E-2,-1.750621319E0,-1.505008221E0
7.531733122E0,1.322020292E-1,-1.752689838E0,-1.545265198E0
7.536497028E0,2.258766294E-1,-1.730590820E0,-1.550053835E0
7.541260987E0,2.821781933E-1,-1.660400867E0,-1.588827848E0
7.546024945E0,3.083127141E-1,-1.587562561E0,-1.573177338E0
7.550788903E0,3.208846450E-1,-1.516900539E0,-1.584355831E0
7.555552862E0,3.603923619E-1,-1.465179443E0,-1.586420536E0
7.560316820E0,3.861075044E-1,-1.420408249E0,-1.572259426E0
7.565080778E0,4.027106762E-1,-1.404069901E0,-1.556284904E0
7.569844737E0,4.291870594E-1,-1.358723640E0,-1.545792341E0
7.574608695E0,4.008257091E-1,-1.286787510E0,-1.528864145E0
7.579372653E0,4.274316430E-1,-1.214654922E0,-1.464752913E0
7.584136612E0,4.035216868E-1,-1.111340046E0,-1.386842728E0
7.588900570E0,3.839133084E-1,-1.000917435E0,-1.254264116E0
7.593664528E0,3.375556171E-1,-9.098424911E-1,-1.157565594E0
7.598428487E0,3.123619258E-1,-8.477473259E-1,-1.063027859E0
7.603192445E0,2.630456388E-1,-7.740406990E-1,-9.776520729E-1
7.607956403E0,2.159834802E-1,-7.079076767E-1,-8.941433430E-1
7.612720362E0,1.807051003E-1,-6.421461105E-1,-8.101623058E-1
7.617484320E0,1.453313529E-1,-5.743436813E-1,-7.472558022E-1
7.622248278E0,1.170678735E-1,-5.330820084E-1,-6.649692059E-1
7.627012185E0,1.031606197E-1,-4.943704605E-1,-5.897290707E-1
7.631776143E0,1.060046554E-1,-4.509897232E-1,-4.905533791E-1
7.636540101E0,1.303062439E-1,-4.435901642E-1,-4.104559422E-1
7.641304060E0,1.640738249E-1,-4.267406464E-1,-3.302562237E-1
7.646068018E0,2.598921657E-1,-4.076471329E-1,-2.666318417E-1
7.650831976E0,3.196069896E-1,-3.314771652E-1,-2.121357918E-1
7.655595935E0,4.100867212E-1,-2.676763535E-1,-1.714153290E-1
7.660359893E0,5.217055082E-1,-1.924238205E-1,-1.323080063E-1
7.665123851E0,6.136558056E-1,-1.680049896E-1,-8.023405075E-2
7.669887810E0,6.908401847E-1,-9.888076782E-2,-7.468748093E-2
7.674651768E0,7.460534573E-1,-3.063583374E-2,-6.996965408E-2
7.679415726E0,7.793198824E-1,7.948875427E-3,-5.868196487E-2
7.684179633E0,8.410643339E-1,9.097576141E-2,-1.100630760E-1
7.688943591E0,8.644430637E-1,1.156368256E-1,-2.073044777E-1
7.693707549E0,8.400554061E-1,2.088356018E-1,-3.148202896E-1
7.698471508E0,8.061746359E-1,3.084716797E-1,-3.754804134E-1
7.703235466E0,7.196756601E-1,4.243335724E-1,-4.304735661E-1
7.707999424E0,6.260280609E-1,5.422458649E-1,-4.849574566E-1
7.712763383E0,5.324451923E-1,6.839103699E-1,-5.273938179E-1
7.717527341E0,4.388777614E-1,8.183660507E-1,-5.198481083E-1
7.722291299E0,3.669141531E-1,9.314212799E-1,-4.793961048E-1
7.727055258E0,3.262479007E-1,9.921531677E-1,-4.971249104E-1
7.731819216E0,2.789008319E-1,1.074810982E0,-5.086109638E-1
7.736583174E0,2.871704698E-1,1.162756920E0,-4.782559872E-1
7.741347133E0,2.649471164E-1,1.258381844E0,-4.276487827E-1
7.746111039E0,2.743360698E-1,1.335395813E0,-2.684245110E-1
7.750874997E0,3.152920008E-1,1.353170395E0,-1.058266163E-1
7.755638955E0,3.830998540E-1,1.369113922E0,8.409214020E-2
7.760402914E0,4.418672323E-1,1.375926971E0,3.015804291E-1
7.765166872E0,4.725368321E-1,1.418860435E0,4.824409485E-1
7.769930830E0,4.704036117E-1,1.449911118E0,7.107200623E-1
7.774694789E0,4.282954633E-1,1.509440422E0,9.080939293E-1
7.779458747E0,3.557449877E-1,1.527782440E0,1.049003124E0
7.784222705E0,2.338135242E-1,1.588386536E0,1.110182285E0
7.788986612E0,9.580075741E-2,1.688619614E0,1.127963543E0
7.793750570E0,-9.919846058E-2,1.768611908E0,1.152720451E0
7.798514528E0,-2.680370212E-1,1.864274025E0,1.160389900E0
7.803278487E0,-4.375958443E-1,1.935052872E0,1.114871025E0
7.808042445E0,-5.795846581E-1,2.002719879E0,1.049140453E0
7.812806403E0,-6.705220342E-1,2.072319031E0,9.506425858E-1
7.817570362E0,-7.226569653E-1,2.089144707E0,8.881144524E-1
7.822334320E0,-7.599455118E-1,2.101403236E0,8.798601627E-1
7.827098278E0,-7.175642252E-1,2.095044136E0,8.559248447E-1
7.831862237E0,-6.215261221E-1,2.017795563E0,8.850486279E-1
7.836626143E0,-5.287115574E-1,1.953566551E0,9.907364845E-1
7.841390101E0,-4.074262381E-1,1.911913872E0,1.120372534E0
7.846154060E0,-2.927514315E-1,1.770857811E0,1.257467031E0
7.850918018E0,-1.910515428E-1,1.635522842E0,1.345119476E0
7.855681976E0,-7.046312094E-2,1.496127129E0,1.398330450E0
7.860445935E0,-1.644700766E-2,1.319082260E0,1.381687403E0
7.865209893E0,-1.889204979E-2,1.085265160E0,1.314590931E0
7.869973851E0,-6.080669165E-2,8.569421768E-1,1.189846992E0
7.874737758E0,-1.783425808E-1,6.270637512E-1,1.054998398E0
7.879501716E0,-3.267375827E-1,4.292984009E-1,9.764053822E-1
7.884265674E0,-4.856278896E-1,2.948369980E-1,9.319453239E-1
7.889029633E0,-6.538181901E-1,2.236547470E-1,9.117050171E-1
7.893793591E0,-7.701683640E-1,1.940975189E-1,8.965215683E-1
7.898557549E0,-8.664867878E-1,1.653099060E-1,8.412556648E-1
7.903321508E0,-8.644956350E-1,1.035995483E-1,8.515257835E-1
7.908085466E0,-7.836680412E-1,5.407142639E-2,8.730034828E-1
7.912849372E0,-7.101926804E-1,2.122497559E-2,8.895130157E-1
7.917613330E0,-6.271496415E-1,-7.186889648E-3,8.921360970E-1
7.922377289E0,-5.056657195E-1,1.401042938E-2,8.503475189E-1
7.927141247E0,-4.721353650E-1,7.026386261E-2,8.171577454E-1
7.931905205E0,-4.830094576E-1,1.615352631E-1,7.591576576E-1
7.936669164E0,-4.948055744E-1,2.113714218E-1,6.786885262E-1
7.941433122E0,-5.286064744E-1,2.535314560E-1,5.657496452E-1
7.946197028E0,-5.719785690E-1,2.548608780E-1,4.962964058E-1
7.950960987E0,-5.958214998E-1,2.564039230E-1,4.050288200E-1
7.955724945E0,-5.662048459E-1,2.658185959E-1,3.053383827E-1
7.960488903E0,-5.189651251E-1,2.691497803E-1,2.537574768E-1
7.965252862E0,-5.089731812E-1,2.810554504E-1,2.233028412E-1
7.970016820E0,-4.932176471E-1,2.515363693E-1,2.469997406E-1
7.974780778E0,-4.452832937E-1,1.926050186E-1,2.937536240E-1
7.979544685E0,-3.366038203E-1,9.460163116E-2,3.590855598E-1
7.984308643E0,-2.698607445E-1,-1.164913177E-2,4.245586395E-1
7.989072601E0,-1.804029942E-1,-1.718788147E-1,5.411238670E-1
7.993836560E0,-1.018472910E-1,-3.170919418E-1,6.378183365E-1
7.998600518E0,-7.505047321E-2,-4.380569458E-1,7.367954254E-1
8.003364476E0,-4.059636593E-2,-5.518245697E-1,8.744301796E-1
8.008128383E0,-2.289736271E-2,-6.514892578E-1,9.985198975E-1
8.012892341E0,6.511271000E-3,-7.181844711E-1,1.054532051E0
8.017656299E0,4.500854015E-2,-8.309640884E-1,1.045166969E0
8.022420258E0,5.911451578E-2,-8.966636658E-1,9.850087166E-1
8.027184216E0,6.073623896E-2,-9.297933578E-1,9.244832993E-1
8.031948174E0,5.237203836E-2,-9.472389221E-1,7.682147026E-1
8.036712080E0,3.422737122E-2,-9.561538696E-1,5.951266289E-1
8.041476039E0,4.508370161E-2,-9.898624420E-1,3.715724945E-1
8.046239997E0,2.093136311E-2,-1.031377792E0,1.426625252E-1
8.051003955E0,-3.557896614E-2,-1.018290520E0,-7.296085358E-2
8.055767914E0,-6.235134602E-2,-9.838814735E-1,-1.969432831E-1
8.060531872E0,-6.443738937E-2,-9.711136818E-1,-3.251914978E-1
8.065295830E0,-5.846375227E-2,-9.965181351E-1,-5.153584480E-1
8.070059737E0,-4.195612669E-2,-1.045533657E0,-7.294473648E-1
8.074823695E0,-2.938967943E-2,-1.115624428E0,-8.792426586E-1
8.079587653E0,3.853893280E-2,-1.154080391E0,-9.077584743E-1
8.084351612E0,7.292699814E-2,-1.156223297E0,-8.318321705E-1
8.089115570E0,7.586723566E-2,-1.143773079E0,-8.138492107E-1
8.093879528E0,3.057789803E-2,-1.147982121E0,-8.940618038E-1
8.098643382E0,3.288108110E-2,-1.216793537E0,-9.979112148E-1
8.103407340E0,2.322632074E-2,-1.266606808E0,-1.036652565E0
8.108171298E0,2.330332994E-2,-1.297459126E0,-1.041379690E0
8.112935257E0,9.127914906E-3,-1.278364658E0,-1.012040615E0
8.117699215E0,-7.491946220E-3,-1.274036407E0,-1.024955511E0
8.122463173E0,-5.295407772E-2,-1.368108273E0,-1.087259769E0
8.127227080E0,-1.152344942E-1,-1.402727604E0,-1.174986362E0
8.131991038E0,-1.132715940E-1,-1.480638027E0,-1.254877806E0
8.136754996E0,-1.168570518E-1,-1.520447254E0,-1.296135664E0
8.141518955E0,-1.145069599E-1,-1.548487186E0,-1.313271046E0
8.146282913E0,-1.208873987E-1,-1.598238945E0,-1.320721149E0
8.151046819E0,-1.672501564E-1,-1.638625622E0,-1.356755972E0
8.155810777E0,-1.746661663E-1,-1.645814896E0,-1.347159386E0
8.160574736E0,-1.667915583E-1,-1.636533737E0,-1.356530428E0
8.165338694E0,-1.505314112E-1,-1.617969990E0,-1.351330757E0
8.170102652E0,-1.159353256E-1,-1.594856262E0,-1.322031260E0
8.174866611E0,-6.509339809E-2,-1.559963703E0,-1.287829876E0
8.179630517E0,-3.109157085E-2,-1.503658772E0,-1.284649134E0
8.184394475E0,3.678345680E-2,-1.421077251E0,-1.274297476E0
8.189158434E0,7.672142982E-2,-1.338433743E0,-1.302301645E0
8.193922392E0,1.295553446E-1,-1.277224541E0,-1.311238289E0
8.198686298E0,1.547493935E-1,-1.206363201E0,-1.293920279E0
8.203450257E0,1.811369658E-1,-1.188043118E0,-1.310008287E0
8.208214215E0,1.703898907E-1,-1.150536537E0,-1.294885874E0
8.212978173E0,7.225215435E-2,-1.015092373E0,-1.327326059E0
8.217742132E0,-3.231918812E-2,-9.253830910E-1,-1.368822575E0
8.222506038E0,-5.289947987E-2,-9.601783752E-1,-1.371735573E0
8.227269996E0,-4.751622677E-2,-9.973468781E-1,-1.231275797E0
8.232033955E0,-1.412942410E-1,-1.041619778E0,-1.081749201E0
8.236797913E0,-2.675536871E-1,-9.973607063E-1,-1.047593355E0
8.241561871E0,-3.717931509E-1,-9.005999565E-1,-9.948351383E-1
8.246325777E0,-4.544301033E-1,-7.515149117E-1,-9.066624641E-1
8.251089736E0,-5.225671530E-1,-6.197090149E-1,-8.352477551E-1
8.255853694E0,-5.638213158E-1,-5.028667450E-1,-8.161227703E-1
8.260617652E0,-5.180531740E-1,-4.177999496E-1,-7.389914989E-1
8.265381611E0,-5.405383110E-1,-2.786846161E-1,-5.627961159E-1
8.270145517E0,-5.760762691E-1,-2.005414963E-1,-4.544620514E-1
8.274909475E0,-5.478185415E-1,-1.403856277E-1,-4.303417206E-1
8.279673434E0,-5.104516745E-1,-7.917499542E-2,-4.016213417E-1
8.284437392E0,-4.686737061E-1,-1.447677612E-2,-4.018135071E-1
8.289201298E0,-4.846146107E-1,1.254053116E-1,-4.260997772E-1
8.293965257E0,-5.295902491E-1,2.544775009E-1,-4.029927254E-1
8.298729215E0,-5.175117254E-1,3.802165985E-1,-4.071631432E-1
8.303493173E0,-6.275542974E-1,6.152191162E-1,-3.936276436E-1
8.308257080E0,-5.559691191E-1,7.469530106E-1,-3.820533752E-1
8.313021038E0,-4.895669222E-1,8.095235825E-1,-3.184885979E-1
8.317784996E0,-4.785186052E-1,9.347190857E-1,-2.178344727E-1
8.322548955E0,-4.604940414E-1,1.027134895E0,-1.594905853E-1
8.327312913E0,-3.683427572E-1,1.122908592E0,-1.342782974E-1
8.332076819E0,-3.380777836E-1,1.222208023E0,-1.041936874E-1
8.336840777E0,-3.146104813E-1,1.346605301E0,-7.486343384E-5
8.341604736E0,-2.621322870E-1,1.431492805E0,1.613292694E-1
8.346368694E0,-2.309138775E-1,1.450486183E0,3.826012611E-1
8.351132652E0,-1.442002654E-1,1.394037247E0,5.252428055E-1
8.355896559E0,-3.279858828E-2,1.295578003E0,6.589632034E-1
8.360660517E0,2.222585678E-2,1.291225433E0,8.868780136E-1
8.365424475E0,7.843494415E-2,1.249152184E0,1.063635826E0
8.370188434E0,9.535360336E-2,1.276644707E0,1.261604786E0
8.374952340E0,7.820850611E-2,1.351803780E0,1.349971771E0
8.379716298E0,-2.249658108E-2,1.438368797E0,1.339238644E0
8.384480257E0,-1.799751520E-1,1.612339973E0,1.268713951E0
8.389244215E0,-4.659482241E-1,1.696378708E0,1.136787415E0
8.394008121E0,-7.254653573E-1,1.728676796E0,1.053664207E0
8.398772080E0,-9.621230364E-1,1.785731316E0,1.035858631E0
8.403536038E0,-1.179683447E0,1.769701004E0,1.077908516E0
8.408299996E0,-1.372135639E0,1.793420792E0,9.636077881E-1
8.413063902E0,-1.499953747E0,1.888516426E0,9.116253853E-1
8.417827861E0,-1.552077532E0,2.043484688E0,8.417935371E-1
8.422591819E0,-1.519542813E0,2.103568077E0,7.814202309E-1
8.427355777E0,-1.347542524E0,2.083753586E0,7.652978897E-1
8.432119684E0,-1.054981470E0,2.006132126E0,8.427133560E-1
8.436883642E0,-6.892432570E-1,1.847171783E0,9.653339386E-1
8.441647600E0,-2.972242236E-1,1.674005508E0,1.133137226E0
8.446411507E0,1.152475476E-1,1.508023262E0,1.298880577E0
8.451175465E0,4.609415531E-1,1.334531784E0,1.458760262E0
8.455939423E0,7.747011185E-1,1.164999008E0,1.535157681E0
8.460703382E0,1.007668018E0,1.008432388E0,1.543818951E0
8.465467288E0,1.184862971E0,8.595218658E-1,1.454927921E0
8.470231246E0,1.227989674E0,7.488660812E-1,1.338835239E0
8.474995205E0,1.175413609E0,6.282844543E-1,1.224850178E0
8.479759163E0,9.931150675E-1,5.191726685E-1,1.105880737E0
8.484523069E0,7.541373968E-1,4.740524292E-1,1.027169704E0
8.489287027E0,4.808846414E-1,4.642229080E-1,1.004972935E0
8.494050986E0,1.932837367E-1,4.754829407E-1,1.021831989E0
8.498814944E0,-5.041062832E-2,5.007467270E-1,1.048499107E0
8.503578850E0,-2.347547412E-1,5.065746307E-1,1.089414120E0
8.508342809E0,-3.151128292E-1,4.904966354E-1,1.111135006E0
8.513106767E0,-3.373747468E-1,4.977407455E-1,1.104412556E0
8.517870673E0,-2.728409767E-1,4.539556503E-1,1.084068775E0
8.522634632E0,-1.453058720E-1,4.354238510E-1,1.036292553E0
8.527398590E0,1.919233799E-2,4.276323318E-1,1.045091152E0
8.532162496E0,1.636610031E-1,4.113836288E-1,1.062811375E0
8.536926455E0,3.267558813E-1,4.010620117E-1,1.072754860E0
8.541690413E0,4.874898791E-1,4.087123871E-1,1.046194077E0
8.546454371E0,7.014776468E-1,3.724288940E-1,1.016325474E0
8.551218277E0,9.192737341E-1,3.020267487E-1,9.399480820E-1
8.555982236E0,1.093957663E0,2.647342682E-1,8.096251488E-1
8.560746194E0,1.302802086E0,2.153863907E-1,7.086820602E-1
8.565510152E0,1.443944335E0,1.900815964E-1,5.531644821E-1
8.570274059E0,1.492079139E0,1.364669800E-1,4.168825150E-1
8.575038017E0,1.557899952E0,9.302139282E-2,2.995109558E-1
8.579801975E0,1.553538680E0,2.882385254E-2,1.816716194E-1
8.584565934E0,1.510653019E0,-7.983779907E-2,8.224773407E-2
8.589329840E0,1.405581236E0,-2.136001587E-1,-5.169057846E-2
8.594093798E0,1.312216401E0,-3.077707291E-1,-1.534767151E-1
8.598857757E0,1.144007206E0,-4.053268433E-1,-2.162055969E-1
8.603621663E0,9.769098759E-1,-4.894342422E-1,-2.354035378E-1
8.608385621E0,8.150341511E-1,-5.696282387E-1,-2.064857483E-1
8.613149580E0,6.743472815E-1,-6.698942184E-1,-1.437892914E-1
8.617913486E0,5.444737673E-1,-7.139844894E-1,-9.718513489E-2
8.622677444E0,3.888311982E-1,-7.859497070E-1,-6.615257263E-2
8.627441402E0,3.120696247E-1,-9.005661011E-1,-6.185674667E-2
8.632205309E0,2.420670986E-1,-1.031987667E0,-4.520988464E-2
8.636969267E0,2.023662925E-1,-1.151952267E0,-4.898738861E-2
8.641733225E0,1.686443090E-1,-1.284805298E0,-4.142856598E-2
8.646497132E0,1.572694778E-1,-1.380700111E0,-7.220172882E-2
8.651261090E0,1.107065082E-1,-1.454263687E0,-1.098260880E-1
8.656025048E0,8.154338598E-2,-1.474549770E0,-1.661086082E-1
8.660789007E0,4.820168018E-2,-1.455985546E0,-2.529616356E-1
8.665552913E0,3.944456577E-2,-1.432017803E0,-3.369846344E-1
8.670316871E0,3.865367174E-2,-1.402502060E0,-4.160251617E-1
8.675080830E0,6.514036655E-2,-1.429352760E0,-4.976119995E-1
8.679844736E0,1.024735570E-1,-1.402326107E0,-6.633462906E-1
8.684608694E0,1.103853583E-1,-1.383287430E0,-8.060860634E-1
8.689372652E0,1.417380571E-1,-1.376644611E0,-9.264378548E-1
8.694136559E0,1.249618530E-1,-1.334270000E0,-1.020174026E0
8.698900517E0,1.319736838E-1,-1.275008202E0,-1.111759663E0
8.703664475E0,1.440883279E-1,-1.265420914E0,-1.204166651E0
8.708428382E0,1.568036675E-1,-1.231089592E0,-1.307396889E0
8.713192340E0,1.965180039E-1,-1.195799828E0,-1.340430498E0
8.717956298E0,2.153989673E-1,-1.152235985E0,-1.329917669E0
8.722720257E0,2.493178844E-1,-1.133925915E0,-1.323612452E0
8.727484163E0,2.791351080E-1,-1.150439739E0,-1.290369511E0
8.732248121E0,3.239172697E-1,-1.149340153E0,-1.246642590E0
8.737012027E0,3.381573558E-1,-1.185823441E0,-1.196865320E0
8.741775986E0,3.550481796E-1,-1.226614475E0,-1.100055933E0
8.746539944E0,3.265036941E-1,-1.190720558E0,-9.964830875E-1
8.751303850E0,3.310859799E-1,-1.162151337E0,-9.096357822E-1
8.756067809E0,3.232021928E-1,-1.126799107E0,-8.510417938E-1
8.760831767E0,3.458990455E-1,-1.115877628E0,-7.606694698E-1
8.765595725E0,3.656071424E-1,-1.110274315E0,-7.125954628E-1
8.770359632E0,3.988731503E-1,-1.071791172E0,-6.445822716E-1
8.775123590E0,4.216589928E-1,-1.029215813E0,-6.306424141E-1
8.779887496E0,4.554018974E-1,-1.013589859E0,-6.253724098E-1
8.784651455E0,4.905700684E-1,-9.985642433E-1,-6.288018227E-1
8.789415413E0,5.224366188E-1,-9.554429054E-1,-6.743893623E-1
8.794179319E0,5.679911375E-1,-9.487133026E-1,-7.525994778E-1
8.798943277E0,5.700132847E-1,-9.352054596E-1,-7.727382183E-1
8.803707236E0,6.577889919E-1,-8.861813545E-1,-7.588579655E-1
8.808471142E0,7.070717812E-1,-8.470435143E-1,-7.445163727E-1
8.813235100E0,7.564501762E-1,-8.200244904E-1,-7.633769512E-1
8.817999059E0,8.182818294E-1,-7.309665680E-1,-7.795672417E-1
8.822762965E0,8.810076118E-1,-6.443486214E-1,-8.123548031E-1
8.827526923E0,8.994855881E-1,-5.935535431E-1,-8.020541668E-1
8.832290882E0,9.290007353E-1,-5.426144600E-1,-7.774820328E-1
8.837054788E0,9.480674267E-1,-4.915161133E-1,-7.530181408E-1
8.841818746E0,9.375553727E-1,-4.785795212E-1,-7.332851887E-1
8.846582652E0,8.998450637E-1,-4.345598221E-1,-7.109177113E-1
8.851346611E0,8.539295793E-1,-4.265098572E-1,-7.311587334E-1
8.856110569E0,7.828766704E-1,-3.588953018E-1,-7.388341427E-1
8.860874475E0,6.742250323E-1,-2.844810486E-1,-7.242910862E-1
8.865638434E0,5.799227953E-1,-1.651229858E-1,-6.803579330E-1
8.870402392E0,4.372166991E-1,-3.671741486E-2,-6.502335072E-1
8.875166298E0,2.981031537E-1,9.840393066E-2,-6.102690697E-1
8.879930257E0,1.692071557E-1,2.834234238E-1,-4.772891998E-1
8.884694215E0,5.248218775E-2,4.514780045E-1,-3.712272644E-1
8.889458121E0,-4.559516907E-3,6.123037338E-1,-1.992092133E-1
8.894222080E0,-2.108681202E-2,8.042011261E-1,-5.940723419E-2
8.898985986E0,1.496529579E-2,9.387378693E-1,7.686710358E-2
8.903749944E0,2.509808540E-2,1.037505150E0,2.479290962E-1
8.908513902E0,9.590965509E-2,1.141106606E0,4.444322586E-1
8.913277809E0,1.824154258E-1,1.249393463E0,5.735359192E-1
8.918041767E0,2.733955979E-1,1.283381462E0,6.620016098E-1
8.922805725E0,3.911273479E-1,1.276493073E0,7.318086624E-1
8.927569632E0,5.171173811E-1,1.231047630E0,7.666296959E-1
8.932333590E0,6.400248408E-1,1.190073967E0,7.619419098E-1
8.937097496E0,7.292639017E-1,1.115266800E0,7.873196602E-1
8.941861455E0,8.256148696E-1,1.059314728E0,7.613706589E-1
8.946625413E0,8.169571161E-1,1.065319061E0,6.887731552E-1
8.951389319E0,7.272506952E-1,1.128524780E0,5.335383415E-1
8.956153277E0,5.564611554E-1,1.186903000E0,3.240723610E-1
8.960917184E0,3.402716517E-1,1.300391197E0,1.173810959E-1
8.965681142E0,3.989666700E-2,1.447634697E0,-6.082105637E-2
8.970445100E0,-2.952374816E-1,1.571375847E0,-1.465187073E-1
8.975209007E0,-6.326873899E-1,1.724306107E0,-1.617708206E-1
8.979972965E0,-9.303091764E-1,1.920802116E0,-1.811199188E-1
8.984736923E0,-1.176888108E0,2.081973076E0,-2.215361595E-1
8.989500830E0,-1.402082086E0,2.272375107E0,-1.852312088E-1
8.994264788E0,-1.561493635E0,2.441706657E0,3.036212921E-2
8.999028694E0,-1.682382584E0,2.530178070E0,3.126144409E-1
9.003792652E0,-1.707908511E0,2.607144356E0,6.542658806E-1
9.008556611E0,-1.642967939E0,2.658197403E0,9.885249138E-1
9.013320517E0,-1.537582636E0,2.678417206E0,1.289588928E0
9.018084475E0,-1.369938374E0,2.696352959E0,1.598612309E0
9.022848382E0,-1.179986715E0,2.625733376E0,1.925888062E0
9.027612340E0,-9.286260009E-1,2.526176453E0,2.262594223E0
9.032376298E0,-6.292603612E-1,2.330514908E0,2.561778545E0
9.037140205E0,-2.853230834E-1,2.093602180E0,2.817114353E0
9.041904163E0,7.858955860E-2,1.839234352E0,2.928950787E0
9.046668069E0,4.020173252E-1,1.622301102E0,2.907520771E0
9.051432027E0,6.985851526E-1,1.404473305E0,2.743755341E0
9.056195934E0,9.333682656E-1,1.133205414E0,2.452210426E0
9.060959892E0,1.011503696E0,8.565988541E-1,2.068469048E0
9.065723850E0,1.016956091E0,6.516027451E-1,1.586885452E0
9.070487757E0,8.917787075E-1,6.120090485E-1,1.175721169E0
9.075251715E0,7.043006420E-1,5.209274292E-1,8.640947342E-1
9.080015621E0,4.438898265E-1,5.655632019E-1,5.808162689E-1
9.084779580E0,1.166273355E-1,6.387653351E-1,4.272084236E-1
9.089543486E0,-1.851281524E-1,7.097854614E-1,3.663253784E-1
9.094307444E0,-4.595044255E-1,7.786550522E-1,3.333830833E-1
9.099071402E0,-6.923596263E-1,7.997760773E-1,3.239722252E-1
9.103835309E0,-8.407860994E-1,7.560977936E-1,3.819227219E-1
9.108599267E0,-8.762609363E-1,7.259645462E-1,4.773874283E-1
9.113363173E0,-9.209557176E-1,6.131076813E-1,6.069288254E-1
9.118127132E0,-9.367886186E-1,5.006179810E-1,7.049522400E-1
9.122891038E0,-9.218080640E-1,3.783721924E-1,8.084235191E-1
9.127654996E0,-9.219241142E-1,2.363567352E-1,8.823442459E-1
9.132418955E0,-9.401772022E-1,1.100816727E-1,9.249277115E-1
9.137182861E0,-9.603595138E-1,6.457328796E-3,9.365458488E-1
9.141946819E0,-9.899627566E-1,-7.707023621E-2,8.839478493E-1
9.146710725E0,-1.000518799E0,-1.691465378E-1,7.956914902E-1
9.151474684E0,-1.035110712E0,-2.696390152E-1,6.380896568E-1
9.156238590E0,-1.074630260E0,-3.305425644E-1,4.562101364E-1
9.161002548E0,-1.075927019E0,-4.112949371E-1,2.971796989E-1
9.165766507E0,-1.022193670E0,-4.732637405E-1,1.220164299E-1
9.170530413E0,-9.707537293E-1,-5.495519638E-1,-7.000017166E-2
9.175294371E0,-9.022823572E-1,-6.182556152E-1,-2.174210548E-1
9.180058277E0,-7.949486375E-1,-6.552076340E-1,-2.897071838E-1
9.184822236E0,-6.768572927E-1,-7.270746231E-1,-3.901610374E-1
9.189586142E0,-5.282166600E-1,-7.810630798E-1,-4.400744438E-1
9.194350100E0,-3.913065791E-1,-8.600492477E-1,-4.994194508E-1
9.199114007E0,-2.556499243E-1,-9.735054970E-1,-5.370373726E-1
9.203877965E0,-1.229851842E-1,-1.025788784E0,-5.313265324E-1
9.208641871E0,-1.909869909E-2,-1.095927238E0,-5.107374191E-1
9.213405830E0,6.591218710E-2,-1.167323112E0,-4.677417278E-1
9.218169788E0,1.416723728E-1,-1.240152836E0,-4.067754745E-1
9.222933694E0,1.746131182E-1,-1.297941685E0,-3.775582314E-1
9.227697652E0,1.740486026E-1,-1.360069275E0,-3.509330750E-1
9.232461559E0,1.276181936E-1,-1.400498867E0,-3.384313583E-1
9.237225517E0,3.237998486E-2,-1.467270374E0,-2.704172134E-1
9.241989423E0,-5.263614655E-2,-1.546288013E0,-2.302269936E-1
9.246753382E0,-1.352025867E-1,-1.575553417E0,-2.152643204E-1
9.251517288E0,-2.372673750E-1,-1.598322868E0,-2.061424255E-1
9.256281246E0,-3.380402327E-1,-1.617159843E0,-1.835904121E-1
9.261045152E0,-4.476657510E-1,-1.603486061E0,-2.503409386E-1
9.265809111E0,-5.452321172E-1,-1.629096031E0,-3.393936157E-1
9.270573017E0,-6.406439543E-1,-1.672451496E0,-3.981928825E-1
9.275336975E0,-6.742642522E-1,-1.673686981E0,-4.222159386E-1
9.280100934E0,-6.846263409E-1,-1.673464775E0,-4.498133659E-1
9.284864840E0,-7.266257405E-1,-1.626290321E0,-5.193624496E-1
9.289628798E0,-7.521132827E-1,-1.606263638E0,-5.854177475E-1
9.294392705E0,-7.271446586E-1,-1.579809189E0,-6.719293594E-1
9.299156663E0,-6.417972445E-1,-1.549253941E0,-7.382826805E-1
9.303920569E0,-5.482057929E-1,-1.552752018E0,-8.251893520E-1
9.308684527E0,-4.218999147E-1,-1.568636894E0,-8.682003021E-1
9.313448434E0,-2.480657101E-1,-1.603920937E0,-9.344527721E-1
9.318212392E0,-9.560501575E-2,-1.613080025E0,-9.953360558E-1
9.322976298E0,2.887058258E-2,-1.646229267E0,-1.084426880E0
9.327740257E0,1.353277564E-1,-1.643535614E0,-1.153944969E0
9.332504163E0,2.336904109E-1,-1.640740395E0,-1.185038328E0
9.337268121E0,2.931888700E-1,-1.640177727E0,-1.189775229E0
9.342032027E0,3.713805377E-1,-1.622645378E0,-1.208960056E0
9.346795986E0,3.918107450E-1,-1.580992699E0,-1.249754906E0
9.351559892E0,3.903050125E-1,-1.570181847E0,-1.285932064E0
9.356323850E0,3.930422664E-1,-1.561513901E0,-1.288815975E0
9.361087757E0,3.425193131E-1,-1.531094551E0,-1.315812349E0
9.365851715E0,2.527276278E-1,-1.493350983E0,-1.323828459E0
9.370615621E0,1.449106932E-1,-1.443587780E0,-1.315183401E0
9.375379580E0,5.214840174E-2,-1.389031410E0,-1.308993816E0
9.380143486E0,-4.251551628E-2,-1.341684341E0,-1.324319601E0
9.384907444E0,-1.727948189E-1,-1.308877468E0,-1.327397823E0
9.389671350E0,-2.911199927E-1,-1.250055313E0,-1.318114519E0
9.394435309E0,-3.976802826E-1,-1.229843616E0,-1.284437656E0
9.399199215E0,-4.471965432E-1,-1.181326389E0,-1.259782553E0
9.403963173E0,-5.307586193E-1,-1.152357578E0,-1.234565735E0
9.408727080E0,-5.601276755E-1,-1.107052326E0,-1.196896791E0
9.413491038E0,-5.832482576E-1,-1.038204670E0,-1.134953499E0
9.418254944E0,-5.908741355E-1,-9.482116699E-1,-1.046466351E0
9.423018902E0,-5.830029845E-1,-8.395299911E-1,-9.265968800E-1
9.427782809E0,-5.285857320E-1,-7.576184273E-1,-8.279101849E-1
9.432546767E0,-4.368118644E-1,-7.048540115E-1,-7.717752457E-1
9.437310673E0,-3.670171499E-1,-6.309766769E-1,-7.222964764E-1
9.442074632E0,-2.760058641E-1,-5.479640961E-1,-6.364195347E-1
9.446838538E0,-2.067431211E-1,-4.510831833E-1,-5.308341980E-1
9.451602496E0,-1.518943310E-1,-3.786706924E-1,-4.770812988E-1
9.456366402E0,-1.087563634E-1,-3.043546677E-1,-4.225745201E-1
9.461130361E0,-1.057153344E-1,-2.161712646E-1,-3.577461243E-1
9.465894267E0,-9.249490499E-2,-1.021614075E-1,-3.304491043E-1
9.470658173E0,-9.776175022E-2,6.876850128E-2,-2.714333534E-1
9.475422132E0,-1.430683732E-1,2.058544159E-1,-2.144360542E-1
9.480186038E0,-1.808491349E-1,3.164348602E-1,-1.429972649E-1
9.484949996E0,-2.328368425E-1,4.843082428E-1,-8.846664429E-2
9.489713902E0,-3.207345605E-1,6.162643433E-1,6.372928619E-3
9.494477861E0,-3.945978284E-1,7.578706741E-1,9.342098236E-2
9.499241767E0,-4.616464972E-1,8.661222458E-1,2.013015747E-1
9.504005725E0,-4.957070351E-1,9.243631363E-1,3.370857239E-1
9.508769632E0,-5.398696065E-1,1.001928329E0,4.458274841E-1
9.513533590E0,-5.440330505E-1,1.098759651E0,5.849709511E-1
9.518297496E0,-5.584322214E-1,1.214885712E0,6.922369003E-1
9.523061455E0,-5.902645588E-1,1.316830635E0,8.369507790E-1
9.527825361E0,-5.536807179E-1,1.416586876E0,1.007044315E0
9.532589267E0,-4.654883742E-1,1.456815720E0,1.245472431E0
9.537353225E0,-3.494265676E-1,1.504508972E0,1.415960312E0
9.542117132E0,-2.528475821E-1,1.526120186E0,1.573764324E0
9.546881090E0,-1.058276892E-1,1.624217033E0,1.719424248E0
9.551644996E0,-5.105915666E-2,1.750657082E0,1.762715340E0
